timestamp,ref_timestamp,ref_lat,ref_lon,surface_bottom_timestamp,x,y,z,delta_xy[0],delta_xy[1],delta_z,vx,vy,vz,delta_vxy[0],delta_vxy[1],delta_vz,ax,ay,az,yaw,ref_alt,dist_bottom,dist_bottom_rate,eph,epv,estimator_type,xy_valid,z_valid,v_xy_valid,v_z_valid,xy_reset_counter,z_reset_counter,vxy_reset_counter,vz_reset_counter,xy_global,z_global,dist_bottom_valid
990234407,0,0.0,0.0,0,-5.35942,1.04766,1.43364,0.0,0.0,0.0,-0.0188204,0.00735679,-0.00723121,0.0,0.0,0.0,0.0,0.0,0.0,0.115978,0.0,0.0,0.0,0.0,0.0,0,1,1,1,1,0,0,0,0,0,0,0
990239374,0,0.0,0.0,0,-5.35951,1.0477,1.4336,0.0,0.0,0.0,-0.0192779,0.00749914,-0.00729312,0.0,0.0,0.0,0.0,0.0,0.0,0.11598,0.0,0.0,0.0,0.0,0.0,0,1,1,1,1,0,0,0,0,0,0,0
990239374,0,0.0,0.0,0,-5.35951,1.0477,1.4336,0.0,0.0,0.0,-0.0192779,0.00749914,-0.00729312,0.0,0.0,0.0,0.0,0.0,0.0,0.11598,0.0,0.0,0.0,0.0,0.0,0,1,1,1,1,0,0,0,0,0,0,0
990244370,0,0.0,0.0,0,-5.35961,1.04773,1.43356,0.0,0.0,0.0,-0.0197956,0.00767449,-0.0073584,0.0,0.0,0.0,0.0,0.0,0.0,0.115985,0.0,0.0,0.0,0.0,0.0,0,1,1,1,1,0,0,0,0,0,0,0
990249429,0,0.0,0.0,0,-5.35971,1.04777,1.43352,0.0,0.0,0.0,-0.0203009,0.00783439,-0.00749869,0.0,0.0,0.0,0.0,0.0,0.0,0.11599,0.0,0.0,0.0,0.0,0.0,0,1,1,1,1,0,0,0,0,0,0,0
990254482,0,0.0,0.0,0,-5.35982,1.04781,1.43349,0.0,0.0,0.0,-0.0209221,0.00805625,-0.00764962,0.0,0.0,0.0,0.0,0.0,0.0,0.115987,0.0,0.0,0.0,0.0,0.0,0,1,1,1,1,0,0,0,0,0,0,0
990259444,0,0.0,0.0,0,-5.35993,1.04786,1.43345,0.0,0.0,0.0,-0.0215633,0.00824301,-0.00783074,0.0,0.0,0.0,0.0,0.0,0.0,0.115987,0.0,0.0,0.0,0.0,0.0,0,1,1,1,1,0,0,0,0,0,0,0
990264475,0,0.0,0.0,0,-5.36004,1.0479,1.43341,0.0,0.0,0.0,-0.0221959,0.00832186,-0.00806472,0.0,0.0,0.0,0.0,0.0,0.0,0.115992,0.0,0.0,0.0,0.0,0.0,0,1,1,1,1,0,0,0,0,0,0,0
990269966,0,0.0,0.0,0,-5.36015,1.04794,1.43336,0.0,0.0,0.0,-0.0227395,0.00842206,-0.00836846,0.0,0.0,0.0,0.0,0.0,0.0,0.115994,0.0,0.0,0.0,0.0,0.0,0,1,1,1,1,0,0,0,0,0,0,0
990274462,0,0.0,0.0,0,-5.36027,1.04798,1.43332,0.0,0.0,0.0,-0.0232588,0.00870934,-0.00846809,0.0,0.0,0.0,0.0,0.0,0.0,0.115996,0.0,0.0,0.0,0.0,0.0,0,1,1,1,1,0,0,0,0,0,0,0
990284619,0,0.0,0.0,0,-5.36051,1.04807,1.43324,0.0,0.0,0.0,-0.0243296,0.00913672,-0.00861943,0.0,0.0,0.0,0.0,0.0,0.0,0.115993,0.0,0.0,0.0,0.0,0.0,0,1,1,1,1,0,0,0,0,0,0,0
990289640,0,0.0,0.0,0,-5.36063,1.04812,1.43319,0.0,0.0,0.0,-0.0248863,0.00937669,-0.00868541,0.0,0.0,0.0,0.0,0.0,0.0,0.11599,0.0,0.0,0.0,0.0,0.0,0,1,1,1,1,0,0,0,0,0,0,0
990294505,0,0.0,0.0,0,-5.36076,1.04817,1.43315,0.0,0.0,0.0,-0.0253009,0.00956986,-0.00873769,0.0,0.0,0.0,0.0,0.0,0.0,0.115992,0.0,0.0,0.0,0.0,0.0,0,1,1,1,1,0,0,0,0,0,0,0
990300064,0,0.0,0.0,0,-5.36089,1.04822,1.4331,0.0,0.0,0.0,-0.0256062,0.00958766,-0.00879601,0.0,0.0,0.0,0.0,0.0,0.0,0.116002,0.0,0.0,0.0,0.0,0.0,0,1,1,1,1,0,0,0,0,0,0,0
990304528,0,0.0,0.0,0,-5.36102,1.04826,1.43306,0.0,0.0,0.0,-0.0260408,0.00960522,-0.00890663,0.0,0.0,0.0,0.0,0.0,0.0,0.116013,0.0,0.0,0.0,0.0,0.0,0,1,1,1,1,0,0,0,0,0,0,0
990309509,0,0.0,0.0,0,-5.36115,1.04831,1.43301,0.0,0.0,0.0,-0.0265643,0.00968774,-0.00905631,0.0,0.0,0.0,0.0,0.0,0.0,0.116017,0.0,0.0,0.0,0.0,0.0,0,1,1,1,1,0,0,0,0,0,0,0
990314575,0,0.0,0.0,0,-5.35939,1.04769,1.43381,0.0,0.0,0.0,-0.0165024,0.00669263,-0.00522342,0.0,0.0,0.0,0.0,0.0,0.0,0.115949,0.0,0.0,0.0,0.0,0.0,0,1,1,1,1,0,0,0,0,0,0,0
990319518,0,0.0,0.0,0,-5.35947,1.04773,1.43378,0.0,0.0,0.0,-0.01703,0.00682047,-0.00549842,0.0,0.0,0.0,0.0,0.0,0.0,0.115951,0.0,0.0,0.0,0.0,0.0,0,1,1,1,1,0,0,0,0,0,0,0
990324508,0,0.0,0.0,0,-5.35956,1.04776,1.43375,0.0,0.0,0.0,-0.017513,0.00701505,-0.00572477,0.0,0.0,0.0,0.0,0.0,0.0,0.115961,0.0,0.0,0.0,0.0,0.0,0,1,1,1,1,0,0,0,0,0,0,0
990329569,0,0.0,0.0,0,-5.35965,1.0478,1.43372,0.0,0.0,0.0,-0.0180389,0.00723854,-0.00587581,0.0,0.0,0.0,0.0,0.0,0.0,0.115968,0.0,0.0,0.0,0.0,0.0,0,1,1,1,1,0,0,0,0,0,0,0
990334566,0,0.0,0.0,0,-5.35974,1.04784,1.43369,0.0,0.0,0.0,-0.0186306,0.00739331,-0.00588136,0.0,0.0,0.0,0.0,0.0,0.0,0.115973,0.0,0.0,0.0,0.0,0.0,0,1,1,1,1,0,0,0,0,0,0,0
990339877,0,0.0,0.0,0,-5.35984,1.04787,1.43366,0.0,0.0,0.0,-0.0191633,0.00748198,-0.0059656,0.0,0.0,0.0,0.0,0.0,0.0,0.115975,0.0,0.0,0.0,0.0,0.0,0,1,1,1,1,0,0,0,0,0,0,0
990344532,0,0.0,0.0,0,-5.35994,1.04791,1.43363,0.0,0.0,0.0,-0.0196211,0.00768878,-0.00621651,0.0,0.0,0.0,0.0,0.0,0.0,0.115975,0.0,0.0,0.0,0.0,0.0,0,1,1,1,1,0,0,0,0,0,0,0
990349577,0,0.0,0.0,0,-5.36004,1.04795,1.4336,0.0,0.0,0.0,-0.0201388,0.00789672,-0.00643446,0.0,0.0,0.0,0.0,0.0,0.0,0.115977,0.0,0.0,0.0,0.0,0.0,0,1,1,1,1,0,0,0,0,0,0,0
990354529,0,0.0,0.0,0,-5.36014,1.04799,1.43357,0.0,0.0,0.0,-0.0207344,0.00809152,-0.00662262,0.0,0.0,0.0,0.0,0.0,0.0,0.115977,0.0,0.0,0.0,0.0,0.0,0,1,1,1,1,0,0,0,0,0,0,0
990359581,0,0.0,0.0,0,-5.36025,1.04803,1.43353,0.0,0.0,0.0,-0.0212655,0.00827628,-0.00689499,0.0,0.0,0.0,0.0,0.0,0.0,0.115974,0.0,0.0,0.0,0.0,0.0,0,1,1,1,1,0,0,0,0,0,0,0
990364528,0,0.0,0.0,0,-5.36036,1.04808,1.43349,0.0,0.0,0.0,-0.0217333,0.00856418,-0.00719115,0.0,0.0,0.0,0.0,0.0,0.0,0.115974,0.0,0.0,0.0,0.0,0.0,0,1,1,1,1,0,0,0,0,0,0,0
990369768,0,0.0,0.0,0,-5.36047,1.04812,1.43346,0.0,0.0,0.0,-0.0222681,0.00882678,-0.00733902,0.0,0.0,0.0,0.0,0.0,0.0,0.115973,0.0,0.0,0.0,0.0,0.0,0,1,1,1,1,0,0,0,0,0,0,0
990374781,0,0.0,0.0,0,-5.36058,1.04817,1.43342,0.0,0.0,0.0,-0.0228624,0.00894913,-0.00753725,0.0,0.0,0.0,0.0,0.0,0.0,0.115967,0.0,0.0,0.0,0.0,0.0,0,1,1,1,1,0,0,0,0,0,0,0
990379666,0,0.0,0.0,0,-5.3607,1.04821,1.43338,0.0,0.0,0.0,-0.0234938,0.0090526,-0.00767482,0.0,0.0,0.0,0.0,0.0,0.0,0.115962,0.0,0.0,0.0,0.0,0.0,0,1,1,1,1,0,0,0,0,0,0,0
990384624,0,0.0,0.0,0,-5.36082,1.04826,1.43334,0.0,0.0,0.0,-0.0241227,0.00922895,-0.00779459,0.0,0.0,0.0,0.0,0.0,0.0,0.115961,0.0,0.0,0.0,0.0,0.0,0,1,1,1,1,0,0,0,0,0,0,0
990394753,0,0.0,0.0,0,-5.36107,1.04835,1.43326,0.0,0.0,0.0,-0.0252702,0.00990046,-0.00797748,0.0,0.0,0.0,0.0,0.0,0.0,0.115952,0.0,0.0,0.0,0.0,0.0,0,1,1,1,1,0,0,0,0,0,0,0
990404669,0,0.0,0.0,0,-5.36133,1.04846,1.43318,0.0,0.0,0.0,-0.0262193,0.0105792,-0.00825994,0.0,0.0,0.0,0.0,0.0,0.0,0.115959,0.0,0.0,0.0,0.0,0.0,0,1,1,1,1,0,0,0,0,0,0,0
990409956,0,0.0,0.0,0,-5.35984,1.0479,1.43486,0.0,0.0,0.0,-0.0168684,0.00789503,-0.0025699,0.0,0.0,0.0,0.0,0.0,0.0,0.115963,0.0,0.0,0.0,0.0,0.0,0,1,1,1,1,0,0,0,0,0,0,0
990414644,0,0.0,0.0,0,-5.35993,1.04795,1.43484,0.0,0.0,0.0,-0.017478,0.0080847,-0.00263238,0.0,0.0,0.0,0.0,0.0,0.0,0.115965,0.0,0.0,0.0,0.0,0.0,0,1,1,1,1,0,0,0,0,0,0,0
990419688,0,0.0,0.0,0,-5.36002,1.04799,1.43483,0.0,0.0,0.0,-0.0180448,0.00834654,-0.00273712,0.0,0.0,0.0,0.0,0.0,0.0,0.115962,0.0,0.0,0.0,0.0,0.0,0,1,1,1,1,0,0,0,0,0,0,0
990424624,0,0.0,0.0,0,-5.36011,1.04803,1.43482,0.0,0.0,0.0,-0.0186613,0.00861253,-0.00291985,0.0,0.0,0.0,0.0,0.0,0.0,0.115962,0.0,0.0,0.0,0.0,0.0,0,1,1,1,1,0,0,0,0,0,0,0
990429681,0,0.0,0.0,0,-5.36021,1.04807,1.4348,0.0,0.0,0.0,-0.019221,0.00877674,-0.00311718,0.0,0.0,0.0,0.0,0.0,0.0,0.115964,0.0,0.0,0.0,0.0,0.0,0,1,1,1,1,0,0,0,0,0,0,0
990434659,0,0.0,0.0,0,-5.36031,1.04812,1.43478,0.0,0.0,0.0,-0.0197353,0.00896195,-0.00334768,0.0,0.0,0.0,0.0,0.0,0.0,0.115969,0.0,0.0,0.0,0.0,0.0,0,1,1,1,1,0,0,0,0,0,0,0
990439650,0,0.0,0.0,0,-5.36041,1.04816,1.43477,0.0,0.0,0.0,-0.0203315,0.00915187,-0.00367513,0.0,0.0,0.0,0.0,0.0,0.0,0.115973,0.0,0.0,0.0,0.0,0.0,0,1,1,1,1,0,0,0,0,0,0,0
990444714,0,0.0,0.0,0,-5.36051,1.04821,1.43475,0.0,0.0,0.0,-0.0209002,0.00935527,-0.00391665,0.0,0.0,0.0,0.0,0.0,0.0,0.115976,0.0,0.0,0.0,0.0,0.0,0,1,1,1,1,0,0,0,0,0,0,0
990449671,0,0.0,0.0,0,-5.36062,1.04826,1.43473,0.0,0.0,0.0,-0.0214868,0.00954597,-0.00409428,0.0,0.0,0.0,0.0,0.0,0.0,0.115978,0.0,0.0,0.0,0.0,0.0,0,1,1,1,1,0,0,0,0,0,0,0
990454690,0,0.0,0.0,0,-5.36073,1.04831,1.4347,0.0,0.0,0.0,-0.0220966,0.00976253,-0.00424825,0.0,0.0,0.0,0.0,0.0,0.0,0.115977,0.0,0.0,0.0,0.0,0.0,0,1,1,1,1,0,0,0,0,0,0,0
990459680,0,0.0,0.0,0,-5.36085,1.04836,1.43468,0.0,0.0,0.0,-0.0226957,0.00989196,-0.00440814,0.0,0.0,0.0,0.0,0.0,0.0,0.11598,0.0,0.0,0.0,0.0,0.0,0,1,1,1,1,0,0,0,0,0,0,0
990464677,0,0.0,0.0,0,-5.36096,1.04841,1.43466,0.0,0.0,0.0,-0.0233477,0.0100222,-0.00459059,0.0,0.0,0.0,0.0,0.0,0.0,0.115985,0.0,0.0,0.0,0.0,0.0,0,1,1,1,1,0,0,0,0,0,0,0
990469876,0,0.0,0.0,0,-5.36108,1.04846,1.43464,0.0,0.0,0.0,-0.0240029,0.0101485,-0.00474522,0.0,0.0,0.0,0.0,0.0,0.0,0.11599,0.0,0.0,0.0,0.0,0.0,0,1,1,1,1,0,0,0,0,0,0,0
990474695,0,0.0,0.0,0,-5.36121,1.04851,1.43461,0.0,0.0,0.0,-0.0245182,0.0101966,-0.00505524,0.0,0.0,0.0,0.0,0.0,0.0,0.115995,0.0,0.0,0.0,0.0,0.0,0,1,1,1,1,0,0,0,0,0,0,0
990479774,0,0.0,0.0,0,-5.36133,1.04856,1.43458,0.0,0.0,0.0,-0.0250687,0.0102823,-0.00526266,0.0,0.0,0.0,0.0,0.0,0.0,0.115994,0.0,0.0,0.0,0.0,0.0,0,1,1,1,1,0,0,0,0,0,0,0
990484771,0,0.0,0.0,0,-5.36146,1.04861,1.43456,0.0,0.0,0.0,-0.0255865,0.0104275,-0.00547629,0.0,0.0,0.0,0.0,0.0,0.0,0.115994,0.0,0.0,0.0,0.0,0.0,0,1,1,1,1,0,0,0,0,0,0,0
990489860,0,0.0,0.0,0,-5.36159,1.04867,1.43453,0.0,0.0,0.0,-0.0260046,0.0106773,-0.00566728,0.0,0.0,0.0,0.0,0.0,0.0,0.115999,0.0,0.0,0.0,0.0,0.0,0,1,1,1,1,0,0,0,0,0,0,0
990494883,0,0.0,0.0,0,-5.36172,1.04872,1.4345,0.0,0.0,0.0,-0.0264412,0.0109077,-0.00591258,0.0,0.0,0.0,0.0,0.0,0.0,0.116001,0.0,0.0,0.0,0.0,0.0,0,1,1,1,1,0,0,0,0,0,0,0
990499846,0,0.0,0.0,0,-5.36186,1.04878,1.43447,0.0,0.0,0.0,-0.0269521,0.0110945,-0.00611151,0.0,0.0,0.0,0.0,0.0,0.0,0.115998,0.0,0.0,0.0,0.0,0.0,0,1,1,1,1,0,0,0,0,0,0,0
990509859,0,0.0,0.0,0,-5.35959,1.04732,1.43469,0.0,0.0,0.0,-0.0160028,0.00616498,-0.00359129,0.0,0.0,0.0,0.0,0.0,0.0,0.116067,0.0,0.0,0.0,0.0,0.0,0,1,1,1,1,0,0,0,0,0,0,0
990514860,0,0.0,0.0,0,-5.35968,1.04735,1.43467,0.0,0.0,0.0,-0.0165999,0.00636468,-0.00378482,0.0,0.0,0.0,0.0,0.0,0.0,0.11607,0.0,0.0,0.0,0.0,0.0,0,1,1,1,1,0,0,0,0,0,0,0
990519886,0,0.0,0.0,0,-5.35976,1.04738,1.43465,0.0,0.0,0.0,-0.0172305,0.00653506,-0.00404793,0.0,0.0,0.0,0.0,0.0,0.0,0.116072,0.0,0.0,0.0,0.0,0.0,0,1,1,1,1,0,0,0,0,0,0,0
990524866,0,0.0,0.0,0,-5.35985,1.04742,1.43463,0.0,0.0,0.0,-0.0178069,0.00676099,-0.00427025,0.0,0.0,0.0,0.0,0.0,0.0,0.116072,0.0,0.0,0.0,0.0,0.0,0,1,1,1,1,0,0,0,0,0,0,0
990529782,0,0.0,0.0,0,-5.35994,1.04745,1.43461,0.0,0.0,0.0,-0.0183346,0.00697092,-0.00458035,0.0,0.0,0.0,0.0,0.0,0.0,0.116069,0.0,0.0,0.0,0.0,0.0,0,1,1,1,1,0,0,0,0,0,0,0
990534801,0,0.0,0.0,0,-5.36004,1.04749,1.43458,0.0,0.0,0.0,-0.0188618,0.00713966,-0.00494066,0.0,0.0,0.0,0.0,0.0,0.0,0.116063,0.0,0.0,0.0,0.0,0.0,0,1,1,1,1,0,0,0,0,0,0,0
990539773,0,0.0,0.0,0,-5.36014,1.04753,1.43456,0.0,0.0,0.0,-0.0194153,0.0072707,-0.00522422,0.0,0.0,0.0,0.0,0.0,0.0,0.11606,0.0,0.0,0.0,0.0,0.0,0,1,1,1,1,0,0,0,0,0,0,0
990544795,0,0.0,0.0,0,-5.36023,1.04756,1.43453,0.0,0.0,0.0,-0.019925,0.00750859,-0.00545234,0.0,0.0,0.0,0.0,0.0,0.0,0.116059,0.0,0.0,0.0,0.0,0.0,0,1,1,1,1,0,0,0,0,0,0,0
990549964,0,0.0,0.0,0,-5.36034,1.0476,1.4345,0.0,0.0,0.0,-0.0204123,0.00773419,-0.00563722,0.0,0.0,0.0,0.0,0.0,0.0,0.116056,0.0,0.0,0.0,0.0,0.0,0,1,1,1,1,0,0,0,0,0,0,0
990554961,0,0.0,0.0,0,-5.36044,1.04764,1.43447,0.0,0.0,0.0,-0.020948,0.00793006,-0.00581232,0.0,0.0,0.0,0.0,0.0,0.0,0.116056,0.0,0.0,0.0,0.0,0.0,0,1,1,1,1,0,0,0,0,0,0,0
990559935,0,0.0,0.0,0,-5.36055,1.04768,1.43444,0.0,0.0,0.0,-0.0215489,0.00809238,-0.00607591,0.0,0.0,0.0,0.0,0.0,0.0,0.116058,0.0,0.0,0.0,0.0,0.0,0,1,1,1,1,0,0,0,0,0,0,0
990564896,0,0.0,0.0,0,-5.36066,1.04772,1.43441,0.0,0.0,0.0,-0.0222404,0.00829788,-0.00643723,0.0,0.0,0.0,0.0,0.0,0.0,0.116061,0.0,0.0,0.0,0.0,0.0,0,1,1,1,1,0,0,0,0,0,0,0
990570147,0,0.0,0.0,0,-5.36078,1.04777,1.43438,0.0,0.0,0.0,-0.0228343,0.00840533,-0.0066839,0.0,0.0,0.0,0.0,0.0,0.0,0.116058,0.0,0.0,0.0,0.0,0.0,0,1,1,1,1,0,0,0,0,0,0,0
990574931,0,0.0,0.0,0,-5.36089,1.04781,1.43434,0.0,0.0,0.0,-0.0232754,0.00844233,-0.00696784,0.0,0.0,0.0,0.0,0.0,0.0,0.116055,0.0,0.0,0.0,0.0,0.0,0,1,1,1,1,0,0,0,0,0,0,0
990580053,0,0.0,0.0,0,-5.36101,1.04785,1.43431,0.0,0.0,0.0,-0.0236697,0.00859939,-0.00713727,0.0,0.0,0.0,0.0,0.0,0.0,0.11606,0.0,0.0,0.0,0.0,0.0,0,1,1,1,1,0,0,0,0,0,0,0
990584986,0,0.0,0.0,0,-5.36113,1.04789,1.43427,0.0,0.0,0.0,-0.0241132,0.00876826,-0.00722694,0.0,0.0,0.0,0.0,0.0,0.0,0.116065,0.0,0.0,0.0,0.0,0.0,0,1,1,1,1,0,0,0,0,0,0,0
990589966,0,0.0,0.0,0,-5.36125,1.04794,1.43423,0.0,0.0,0.0,-0.0245469,0.00897667,-0.00740079,0.0,0.0,0.0,0.0,0.0,0.0,0.116064,0.0,0.0,0.0,0.0,0.0,0,1,1,1,1,0,0,0,0,0,0,0
990595124,0,0.0,0.0,0,-5.36138,1.04799,1.43419,0.0,0.0,0.0,-0.0249699,0.00919537,-0.00752776,0.0,0.0,0.0,0.0,0.0,0.0,0.116064,0.0,0.0,0.0,0.0,0.0,0,1,1,1,1,0,0,0,0,0,0,0
990600107,0,0.0,0.0,0,-5.36151,1.04803,1.43416,0.0,0.0,0.0,-0.0255754,0.00935479,-0.00771614,0.0,0.0,0.0,0.0,0.0,0.0,0.116064,0.0,0.0,0.0,0.0,0.0,0,1,1,1,1,0,0,0,0,0,0,0
990604975,0,0.0,0.0,0,-5.36164,1.04808,1.43412,0.0,0.0,0.0,-0.0261418,0.00944896,-0.00798676,0.0,0.0,0.0,0.0,0.0,0.0,0.116061,0.0,0.0,0.0,0.0,0.0,0,1,1,1,1,0,0,0,0,0,0,0
990610130,0,0.0,0.0,0,-5.35944,1.04933,1.4358,0.0,0.0,0.0,-0.0155184,0.0107696,-0.00216286,0.0,0.0,0.0,0.0,0.0,0.0,0.115915,0.0,0.0,0.0,0.0,0.0,0,1,1,1,1,0,0,0,0,0,0,0
990614882,0,0.0,0.0,0,-5.35952,1.04939,1.43579,0.0,0.0,0.0,-0.0161286,0.0110034,-0.00214319,0.0,0.0,0.0,0.0,0.0,0.0,0.115914,0.0,0.0,0.0,0.0,0.0,0,1,1,1,1,0,0,0,0,0,0,0
990620208,0,0.0,0.0,0,-5.3596,1.04944,1.43578,0.0,0.0,0.0,-0.0167703,0.0111596,-0.00220773,0.0,0.0,0.0,0.0,0.0,0.0,0.115914,0.0,0.0,0.0,0.0,0.0,0,1,1,1,1,0,0,0,0,0,0,0
990624970,0,0.0,0.0,0,-5.35969,1.0495,1.43576,0.0,0.0,0.0,-0.017305,0.0112831,-0.00234113,0.0,0.0,0.0,0.0,0.0,0.0,0.115913,0.0,0.0,0.0,0.0,0.0,0,1,1,1,1,0,0,0,0,0,0,0
990629950,0,0.0,0.0,0,-5.35978,1.04956,1.43575,0.0,0.0,0.0,-0.0177609,0.0114648,-0.00263586,0.0,0.0,0.0,0.0,0.0,0.0,0.115913,0.0,0.0,0.0,0.0,0.0,0,1,1,1,1,0,0,0,0,0,0,0
990635137,0,0.0,0.0,0,-5.35987,1.04961,1.43574,0.0,0.0,0.0,-0.0182826,0.0117266,-0.00293894,0.0,0.0,0.0,0.0,0.0,0.0,0.115909,0.0,0.0,0.0,0.0,0.0,0,1,1,1,1,0,0,0,0,0,0,0
990639939,0,0.0,0.0,0,-5.35996,1.04967,1.43572,0.0,0.0,0.0,-0.0188671,0.0118957,-0.00311181,0.0,0.0,0.0,0.0,0.0,0.0,0.115903,0.0,0.0,0.0,0.0,0.0,0,1,1,1,1,0,0,0,0,0,0,0
990644934,0,0.0,0.0,0,-5.36006,1.04973,1.4357,0.0,0.0,0.0,-0.0195116,0.01207,-0.00326366,0.0,0.0,0.0,0.0,0.0,0.0,0.115903,0.0,0.0,0.0,0.0,0.0,0,1,1,1,1,0,0,0,0,0,0,0
990649955,0,0.0,0.0,0,-5.36016,1.0498,1.43569,0.0,0.0,0.0,-0.0201499,0.0122204,-0.00346253,0.0,0.0,0.0,0.0,0.0,0.0,0.115908,0.0,0.0,0.0,0.0,0.0,0,1,1,1,1,0,0,0,0,0,0,0
990655089,0,0.0,0.0,0,-5.36026,1.04986,1.43567,0.0,0.0,0.0,-0.0207157,0.0123079,-0.00363775,0.0,0.0,0.0,0.0,0.0,0.0,0.115912,0.0,0.0,0.0,0.0,0.0,0,1,1,1,1,0,0,0,0,0,0,0
990660161,0,0.0,0.0,0,-5.36037,1.04992,1.43565,0.0,0.0,0.0,-0.0212473,0.0124258,-0.00369991,0.0,0.0,0.0,0.0,0.0,0.0,0.115909,0.0,0.0,0.0,0.0,0.0,0,1,1,1,1,0,0,0,0,0,0,0
990664933,0,0.0,0.0,0,-5.36048,1.04998,1.43563,0.0,0.0,0.0,-0.0217209,0.0125533,-0.00384665,0.0,0.0,0.0,0.0,0.0,0.0,0.1159,0.0,0.0,0.0,0.0,0.0,0,1,1,1,1,0,0,0,0,0,0,0
990670564,0,0.0,0.0,0,-5.36059,1.05005,1.43561,0.0,0.0,0.0,-0.0222686,0.0126951,-0.00405915,0.0,0.0,0.0,0.0,0.0,0.0,0.115897,0.0,0.0,0.0,0.0,0.0,0,1,1,1,1,0,0,0,0,0,0,0
990674996,0,0.0,0.0,0,-5.36071,1.05011,1.43559,0.0,0.0,0.0,-0.0228874,0.0128286,-0.00428556,0.0,0.0,0.0,0.0,0.0,0.0,0.115899,0.0,0.0,0.0,0.0,0.0,0,1,1,1,1,0,0,0,0,0,0,0
990680237,0,0.0,0.0,0,-5.36082,1.05017,1.43557,0.0,0.0,0.0,-0.0234951,0.013009,-0.0044423,0.0,0.0,0.0,0.0,0.0,0.0,0.115904,0.0,0.0,0.0,0.0,0.0,0,1,1,1,1,0,0,0,0,0,0,0
990684987,0,0.0,0.0,0,-5.36094,1.05024,1.43554,0.0,0.0,0.0,-0.0239306,0.0132489,-0.00464407,0.0,0.0,0.0,0.0,0.0,0.0,0.115909,0.0,0.0,0.0,0.0,0.0,0,1,1,1,1,0,0,0,0,0,0,0
990689996,0,0.0,0.0,0,-5.36106,1.05031,1.43552,0.0,0.0,0.0,-0.0243137,0.0133868,-0.0048525,0.0,0.0,0.0,0.0,0.0,0.0,0.115914,0.0,0.0,0.0,0.0,0.0,0,1,1,1,1,0,0,0,0,0,0,0
990695001,0,0.0,0.0,0,-5.36119,1.05038,1.43549,0.0,0.0,0.0,-0.0248297,0.0135015,-0.0050295,0.0,0.0,0.0,0.0,0.0,0.0,0.115921,0.0,0.0,0.0,0.0,0.0,0,1,1,1,1,0,0,0,0,0,0,0
990700060,0,0.0,0.0,0,-5.36132,1.05044,1.43547,0.0,0.0,0.0,-0.0253941,0.0136544,-0.00519835,0.0,0.0,0.0,0.0,0.0,0.0,0.115929,0.0,0.0,0.0,0.0,0.0,0,1,1,1,1,0,0,0,0,0,0,0
990705050,0,0.0,0.0,0,-5.35969,1.04975,1.43576,0.0,0.0,0.0,-0.0151639,0.0103548,-0.00245577,0.0,0.0,0.0,0.0,0.0,0.0,0.115883,0.0,0.0,0.0,0.0,0.0,0,1,1,1,1,0,0,0,0,0,0,0
990710131,0,0.0,0.0,0,-5.35977,1.04981,1.43574,0.0,0.0,0.0,-0.0157102,0.0105303,-0.00257839,0.0,0.0,0.0,0.0,0.0,0.0,0.11588,0.0,0.0,0.0,0.0,0.0,0,1,1,1,1,0,0,0,0,0,0,0
990715012,0,0.0,0.0,0,-5.35985,1.04986,1.43573,0.0,0.0,0.0,-0.0162552,0.0107669,-0.00266306,0.0,0.0,0.0,0.0,0.0,0.0,0.115879,0.0,0.0,0.0,0.0,0.0,0,1,1,1,1,0,0,0,0,0,0,0
990720050,0,0.0,0.0,0,-5.35993,1.04992,1.43572,0.0,0.0,0.0,-0.0168385,0.0110135,-0.00282609,0.0,0.0,0.0,0.0,0.0,0.0,0.115876,0.0,0.0,0.0,0.0,0.0,0,1,1,1,1,0,0,0,0,0,0,0
990725040,0,0.0,0.0,0,-5.36002,1.04997,1.4357,0.0,0.0,0.0,-0.0174907,0.0111901,-0.00308057,0.0,0.0,0.0,0.0,0.0,0.0,0.115873,0.0,0.0,0.0,0.0,0.0,0,1,1,1,1,0,0,0,0,0,0,0
990730071,0,0.0,0.0,0,-5.36011,1.05003,1.43568,0.0,0.0,0.0,-0.0181149,0.0113446,-0.00321668,0.0,0.0,0.0,0.0,0.0,0.0,0.115872,0.0,0.0,0.0,0.0,0.0,0,1,1,1,1,0,0,0,0,0,0,0
990735085,0,0.0,0.0,0,-5.3602,1.05009,1.43567,0.0,0.0,0.0,-0.018703,0.011458,-0.00343155,0.0,0.0,0.0,0.0,0.0,0.0,0.115871,0.0,0.0,0.0,0.0,0.0,0,1,1,1,1,0,0,0,0,0,0,0
990740128,0,0.0,0.0,0,-5.3603,1.05014,1.43565,0.0,0.0,0.0,-0.0193582,0.0115732,-0.00357372,0.0,0.0,0.0,0.0,0.0,0.0,0.115868,0.0,0.0,0.0,0.0,0.0,0,1,1,1,1,0,0,0,0,0,0,0
990745130,0,0.0,0.0,0,-5.3604,1.0502,1.43563,0.0,0.0,0.0,-0.0199637,0.0117388,-0.00372232,0.0,0.0,0.0,0.0,0.0,0.0,0.115865,0.0,0.0,0.0,0.0,0.0,0,1,1,1,1,0,0,0,0,0,0,0
990750209,0,0.0,0.0,0,-5.3605,1.05026,1.43561,0.0,0.0,0.0,-0.0205109,0.0120245,-0.00381604,0.0,0.0,0.0,0.0,0.0,0.0,0.115861,0.0,0.0,0.0,0.0,0.0,0,1,1,1,1,0,0,0,0,0,0,0
990755066,0,0.0,0.0,0,-5.36061,1.05032,1.43559,0.0,0.0,0.0,-0.0210832,0.012341,-0.00401265,0.0,0.0,0.0,0.0,0.0,0.0,0.115858,0.0,0.0,0.0,0.0,0.0,0,1,1,1,1,0,0,0,0,0,0,0
990760150,0,0.0,0.0,0,-5.36072,1.05039,1.43557,0.0,0.0,0.0,-0.0216541,0.0125502,-0.00417895,0.0,0.0,0.0,0.0,0.0,0.0,0.11586,0.0,0.0,0.0,0.0,0.0,0,1,1,1,1,0,0,0,0,0,0,0
990765165,0,0.0,0.0,0,-5.36083,1.05045,1.43555,0.0,0.0,0.0,-0.022195,0.0128163,-0.00428813,0.0,0.0,0.0,0.0,0.0,0.0,0.115865,0.0,0.0,0.0,0.0,0.0,0,1,1,1,1,0,0,0,0,0,0,0
990770400,0,0.0,0.0,0,-5.36094,1.05052,1.43553,0.0,0.0,0.0,-0.0227433,0.0130643,-0.00447182,0.0,0.0,0.0,0.0,0.0,0.0,0.115865,0.0,0.0,0.0,0.0,0.0,0,1,1,1,1,0,0,0,0,0,0,0
990775171,0,0.0,0.0,0,-5.36106,1.05058,1.4355,0.0,0.0,0.0,-0.0232417,0.0132836,-0.00477831,0.0,0.0,0.0,0.0,0.0,0.0,0.115867,0.0,0.0,0.0,0.0,0.0,0,1,1,1,1,0,0,0,0,0,0,0
990780150,0,0.0,0.0,0,-5.36118,1.05065,1.43548,0.0,0.0,0.0,-0.0237118,0.0135018,-0.00508534,0.0,0.0,0.0,0.0,0.0,0.0,0.115874,0.0,0.0,0.0,0.0,0.0,0,1,1,1,1,0,0,0,0,0,0,0
990785196,0,0.0,0.0,0,-5.3613,1.05072,1.43545,0.0,0.0,0.0,-0.0242257,0.0136277,-0.00532596,0.0,0.0,0.0,0.0,0.0,0.0,0.115879,0.0,0.0,0.0,0.0,0.0,0,1,1,1,1,0,0,0,0,0,0,0
990790302,0,0.0,0.0,0,-5.36142,1.05079,1.43542,0.0,0.0,0.0,-0.0247531,0.0138049,-0.00550435,0.0,0.0,0.0,0.0,0.0,0.0,0.115881,0.0,0.0,0.0,0.0,0.0,0,1,1,1,1,0,0,0,0,0,0,0
990795275,0,0.0,0.0,0,-5.36155,1.05086,1.43539,0.0,0.0,0.0,-0.0252545,0.0140654,-0.0056657,0.0,0.0,0.0,0.0,0.0,0.0,0.115881,0.0,0.0,0.0,0.0,0.0,0,1,1,1,1,0,0,0,0,0,0,0
990800381,0,0.0,0.0,0,-5.36168,1.05093,1.43536,0.0,0.0,0.0,-0.0257515,0.0143175,-0.0058704,0.0,0.0,0.0,0.0,0.0,0.0,0.115878,0.0,0.0,0.0,0.0,0.0,0,1,1,1,1,0,0,0,0,0,0,0
990805203,0,0.0,0.0,0,-5.36181,1.051,1.43533,0.0,0.0,0.0,-0.0262973,0.0144709,-0.00611099,0.0,0.0,0.0,0.0,0.0,0.0,0.11588,0.0,0.0,0.0,0.0,0.0,0,1,1,1,1,0,0,0,0,0,0,0
990810217,0,0.0,0.0,0,-5.3604,1.04909,1.43497,0.0,0.0,0.0,-0.0164312,0.00827161,-0.00499743,0.0,0.0,0.0,0.0,0.0,0.0,0.115869,0.0,0.0,0.0,0.0,0.0,0,1,1,1,1,0,0,0,0,0,0,0
990815143,0,0.0,0.0,0,-5.36049,1.04913,1.43494,0.0,0.0,0.0,-0.017029,0.00846327,-0.00529307,0.0,0.0,0.0,0.0,0.0,0.0,0.115866,0.0,0.0,0.0,0.0,0.0,0,1,1,1,1,0,0,0,0,0,0,0
990820193,0,0.0,0.0,0,-5.36058,1.04917,1.43492,0.0,0.0,0.0,-0.0176193,0.00857913,-0.00542494,0.0,0.0,0.0,0.0,0.0,0.0,0.115871,0.0,0.0,0.0,0.0,0.0,0,1,1,1,1,0,0,0,0,0,0,0
990825148,0,0.0,0.0,0,-5.36067,1.04922,1.43489,0.0,0.0,0.0,-0.0181103,0.00877261,-0.00549002,0.0,0.0,0.0,0.0,0.0,0.0,0.115878,0.0,0.0,0.0,0.0,0.0,0,1,1,1,1,0,0,0,0,0,0,0
990830405,0,0.0,0.0,0,-5.36076,1.04926,1.43486,0.0,0.0,0.0,-0.0186252,0.0089311,-0.00555368,0.0,0.0,0.0,0.0,0.0,0.0,0.115877,0.0,0.0,0.0,0.0,0.0,0,1,1,1,1,0,0,0,0,0,0,0
990835338,0,0.0,0.0,0,-5.36086,1.04931,1.43483,0.0,0.0,0.0,-0.0191331,0.00908899,-0.00568465,0.0,0.0,0.0,0.0,0.0,0.0,0.115874,0.0,0.0,0.0,0.0,0.0,0,1,1,1,1,0,0,0,0,0,0,0
990840283,0,0.0,0.0,0,-5.36095,1.04935,1.4348,0.0,0.0,0.0,-0.0196069,0.00925873,-0.00583646,0.0,0.0,0.0,0.0,0.0,0.0,0.115874,0.0,0.0,0.0,0.0,0.0,0,1,1,1,1,0,0,0,0,0,0,0
990845194,0,0.0,0.0,0,-5.36105,1.0494,1.43477,0.0,0.0,0.0,-0.0200924,0.00944543,-0.00608325,0.0,0.0,0.0,0.0,0.0,0.0,0.115876,0.0,0.0,0.0,0.0,0.0,0,1,1,1,1,0,0,0,0,0,0,0
990850290,0,0.0,0.0,0,-5.36116,1.04945,1.43474,0.0,0.0,0.0,-0.0206324,0.00965969,-0.00624653,0.0,0.0,0.0,0.0,0.0,0.0,0.115883,0.0,0.0,0.0,0.0,0.0,0,1,1,1,1,0,0,0,0,0,0,0
990855264,0,0.0,0.0,0,-5.36126,1.0495,1.43471,0.0,0.0,0.0,-0.0211223,0.00990107,-0.00636415,0.0,0.0,0.0,0.0,0.0,0.0,0.115893,0.0,0.0,0.0,0.0,0.0,0,1,1,1,1,0,0,0,0,0,0,0
990860285,0,0.0,0.0,0,-5.36137,1.04955,1.43468,0.0,0.0,0.0,-0.0215227,0.0100172,-0.00666631,0.0,0.0,0.0,0.0,0.0,0.0,0.115898,0.0,0.0,0.0,0.0,0.0,0,1,1,1,1,0,0,0,0,0,0,0
990865290,0,0.0,0.0,0,-5.36148,1.0496,1.43464,0.0,0.0,0.0,-0.0219587,0.0100697,-0.00692664,0.0,0.0,0.0,0.0,0.0,0.0,0.1159,0.0,0.0,0.0,0.0,0.0,0,1,1,1,1,0,0,0,0,0,0,0
990870924,0,0.0,0.0,0,-5.36159,1.04965,1.43461,0.0,0.0,0.0,-0.0224272,0.0102369,-0.00705479,0.0,0.0,0.0,0.0,0.0,0.0,0.115905,0.0,0.0,0.0,0.0,0.0,0,1,1,1,1,0,0,0,0,0,0,0
990875304,0,0.0,0.0,0,-5.36171,1.0497,1.43457,0.0,0.0,0.0,-0.0229215,0.0103847,-0.00719766,0.0,0.0,0.0,0.0,0.0,0.0,0.115909,0.0,0.0,0.0,0.0,0.0,0,1,1,1,1,0,0,0,0,0,0,0
990880257,0,0.0,0.0,0,-5.36183,1.04975,1.43453,0.0,0.0,0.0,-0.0234881,0.0104944,-0.0073932,0.0,0.0,0.0,0.0,0.0,0.0,0.115906,0.0,0.0,0.0,0.0,0.0,0,1,1,1,1,0,0,0,0,0,0,0
990885257,0,0.0,0.0,0,-5.36195,1.04981,1.43449,0.0,0.0,0.0,-0.0241135,0.0105976,-0.00754771,0.0,0.0,0.0,0.0,0.0,0.0,0.115906,0.0,0.0,0.0,0.0,0.0,0,1,1,1,1,0,0,0,0,0,0,0
990890310,0,0.0,0.0,0,-5.36207,1.04986,1.43446,0.0,0.0,0.0,-0.0246115,0.0107076,-0.00771728,0.0,0.0,0.0,0.0,0.0,0.0,0.115913,0.0,0.0,0.0,0.0,0.0,0,1,1,1,1,0,0,0,0,0,0,0
990895478,0,0.0,0.0,0,-5.3622,1.04992,1.43442,0.0,0.0,0.0,-0.0251994,0.0107389,-0.00786298,0.0,0.0,0.0,0.0,0.0,0.0,0.115918,0.0,0.0,0.0,0.0,0.0,0,1,1,1,1,0,0,0,0,0,0,0
990900301,0,0.0,0.0,0,-5.36233,1.04997,1.43438,0.0,0.0,0.0,-0.025809,0.0108295,-0.00792663,0.0,0.0,0.0,0.0,0.0,0.0,0.115917,0.0,0.0,0.0,0.0,0.0,0,1,1,1,1,0,0,0,0,0,0,0
990905374,0,0.0,0.0,0,-5.36246,1.05002,1.43434,0.0,0.0,0.0,-0.0264683,0.0109084,-0.00789012,0.0,0.0,0.0,0.0,0.0,0.0,0.115914,0.0,0.0,0.0,0.0,0.0,0,1,1,1,1,0,0,0,0,0,0,0
990910422,0,0.0,0.0,0,-5.36259,1.05008,1.4343,0.0,0.0,0.0,-0.027015,0.0110702,-0.00799261,0.0,0.0,0.0,0.0,0.0,0.0,0.115914,0.0,0.0,0.0,0.0,0.0,0,1,1,1,1,0,0,0,0,0,0,0
990915291,0,0.0,0.0,0,-5.36273,1.05014,1.43426,0.0,0.0,0.0,-0.0274758,0.011304,-0.00820953,0.0,0.0,0.0,0.0,0.0,0.0,0.115916,0.0,0.0,0.0,0.0,0.0,0,1,1,1,1,0,0,0,0,0,0,0
990920335,0,0.0,0.0,0,-5.36287,1.05019,1.43421,0.0,0.0,0.0,-0.0279866,0.011409,-0.00854846,0.0,0.0,0.0,0.0,0.0,0.0,0.115915,0.0,0.0,0.0,0.0,0.0,0,1,1,1,1,0,0,0,0,0,0,0
990925302,0,0.0,0.0,0,-5.36301,1.05025,1.43417,0.0,0.0,0.0,-0.0285737,0.0114272,-0.00876098,0.0,0.0,0.0,0.0,0.0,0.0,0.115915,0.0,0.0,0.0,0.0,0.0,0,1,1,1,1,0,0,0,0,0,0,0
990930386,0,0.0,0.0,0,-5.36316,1.05031,1.43412,0.0,0.0,0.0,-0.0291343,0.0114616,-0.00891534,0.0,0.0,0.0,0.0,0.0,0.0,0.115917,0.0,0.0,0.0,0.0,0.0,0,1,1,1,1,0,0,0,0,0,0,0
990935384,0,0.0,0.0,0,-5.36109,1.04898,1.43396,0.0,0.0,0.0,-0.0187434,0.00691686,-0.00757768,0.0,0.0,0.0,0.0,0.0,0.0,0.115901,0.0,0.0,0.0,0.0,0.0,0,1,1,1,1,0,0,0,0,0,0,0
990940311,0,0.0,0.0,0,-5.36118,1.04902,1.43392,0.0,0.0,0.0,-0.0192422,0.00700418,-0.00763858,0.0,0.0,0.0,0.0,0.0,0.0,0.115906,0.0,0.0,0.0,0.0,0.0,0,1,1,1,1,0,0,0,0,0,0,0
990945461,0,0.0,0.0,0,-5.36128,1.04906,1.43388,0.0,0.0,0.0,-0.0198226,0.00705043,-0.00786644,0.0,0.0,0.0,0.0,0.0,0.0,0.115911,0.0,0.0,0.0,0.0,0.0,0,1,1,1,1,0,0,0,0,0,0,0
990950399,0,0.0,0.0,0,-5.36139,1.04909,1.43384,0.0,0.0,0.0,-0.0204378,0.00712511,-0.00805074,0.0,0.0,0.0,0.0,0.0,0.0,0.115907,0.0,0.0,0.0,0.0,0.0,0,1,1,1,1,0,0,0,0,0,0,0
990955411,0,0.0,0.0,0,-5.36149,1.04913,1.4338,0.0,0.0,0.0,-0.0210202,0.00713204,-0.00820646,0.0,0.0,0.0,0.0,0.0,0.0,0.115907,0.0,0.0,0.0,0.0,0.0,0,1,1,1,1,0,0,0,0,0,0,0
990960422,0,0.0,0.0,0,-5.3616,1.04916,1.43376,0.0,0.0,0.0,-0.0215606,0.00715163,-0.00839508,0.0,0.0,0.0,0.0,0.0,0.0,0.115909,0.0,0.0,0.0,0.0,0.0,0,1,1,1,1,0,0,0,0,0,0,0
990965411,0,0.0,0.0,0,-5.36171,1.0492,1.43372,0.0,0.0,0.0,-0.0221098,0.00717939,-0.00854813,0.0,0.0,0.0,0.0,0.0,0.0,0.115908,0.0,0.0,0.0,0.0,0.0,0,1,1,1,1,0,0,0,0,0,0,0
990970593,0,0.0,0.0,0,-5.36182,1.04923,1.43367,0.0,0.0,0.0,-0.0226389,0.00720137,-0.00871343,0.0,0.0,0.0,0.0,0.0,0.0,0.11591,0.0,0.0,0.0,0.0,0.0,0,1,1,1,1,0,0,0,0,0,0,0
990975435,0,0.0,0.0,0,-5.36194,1.04927,1.43363,0.0,0.0,0.0,-0.0232057,0.00719728,-0.00893641,0.0,0.0,0.0,0.0,0.0,0.0,0.115913,0.0,0.0,0.0,0.0,0.0,0,1,1,1,1,0,0,0,0,0,0,0
990980369,0,0.0,0.0,0,-5.36206,1.04931,1.43358,0.0,0.0,0.0,-0.0236798,0.0072384,-0.00904805,0.0,0.0,0.0,0.0,0.0,0.0,0.115917,0.0,0.0,0.0,0.0,0.0,0,1,1,1,1,0,0,0,0,0,0,0
990985375,0,0.0,0.0,0,-5.36218,1.04934,1.43354,0.0,0.0,0.0,-0.0241124,0.00726865,-0.00916042,0.0,0.0,0.0,0.0,0.0,0.0,0.115925,0.0,0.0,0.0,0.0,0.0,0,1,1,1,1,0,0,0,0,0,0,0
990990664,0,0.0,0.0,0,-5.3623,1.04938,1.43349,0.0,0.0,0.0,-0.0245697,0.00729898,-0.00932753,0.0,0.0,0.0,0.0,0.0,0.0,0.115921,0.0,0.0,0.0,0.0,0.0,0,1,1,1,1,0,0,0,0,0,0,0
990995415,0,0.0,0.0,0,-5.36243,1.04942,1.43344,0.0,0.0,0.0,-0.0250635,0.00734303,-0.00940722,0.0,0.0,0.0,0.0,0.0,0.0,0.115915,0.0,0.0,0.0,0.0,0.0,0,1,1,1,1,0,0,0,0,0,0,0
991000467,0,0.0,0.0,0,-5.36256,1.04945,1.4334,0.0,0.0,0.0,-0.0255171,0.00747997,-0.0095257,0.0,0.0,0.0,0.0,0.0,0.0,0.115917,0.0,0.0,0.0,0.0,0.0,0,1,1,1,1,0,0,0,0,0,0,0
991005511,0,0.0,0.0,0,-5.36269,1.04949,1.43335,0.0,0.0,0.0,-0.0259706,0.00756578,-0.00980882,0.0,0.0,0.0,0.0,0.0,0.0,0.115917,0.0,0.0,0.0,0.0,0.0,0,1,1,1,1,0,0,0,0,0,0,0
991011468,0,0.0,0.0,0,-5.36282,1.04953,1.4333,0.0,0.0,0.0,-0.0265037,0.00765551,-0.0100073,0.0,0.0,0.0,0.0,0.0,0.0,0.115913,0.0,0.0,0.0,0.0,0.0,0,1,1,1,1,0,0,0,0,0,0,0
991015521,0,0.0,0.0,0,-5.36295,1.04957,1.43325,0.0,0.0,0.0,-0.0270638,0.0078195,-0.01012,0.0,0.0,0.0,0.0,0.0,0.0,0.115913,0.0,0.0,0.0,0.0,0.0,0,1,1,1,1,0,0,0,0,0,0,0
991021237,0,0.0,0.0,0,-5.36309,1.04961,1.43319,0.0,0.0,0.0,-0.0276272,0.00801408,-0.0102847,0.0,0.0,0.0,0.0,0.0,0.0,0.11591,0.0,0.0,0.0,0.0,0.0,0,1,1,1,1,0,0,0,0,0,0,0
991025559,0,0.0,0.0,0,-5.36323,1.04965,1.43314,0.0,0.0,0.0,-0.0281905,0.00817228,-0.0104683,0.0,0.0,0.0,0.0,0.0,0.0,0.115909,0.0,0.0,0.0,0.0,0.0,0,1,1,1,1,0,0,0,0,0,0,0
991030450,0,0.0,0.0,0,-5.36338,1.04969,1.43309,0.0,0.0,0.0,-0.0287966,0.00834336,-0.0107461,0.0,0.0,0.0,0.0,0.0,0.0,0.115908,0.0,0.0,0.0,0.0,0.0,0,1,1,1,1,0,0,0,0,0,0,0
991035486,0,0.0,0.0,0,-5.35953,1.04873,1.43406,0.0,0.0,0.0,-0.0159309,0.00454398,-0.00701104,0.0,0.0,0.0,0.0,0.0,0.0,0.115865,0.0,0.0,0.0,0.0,0.0,0,1,1,1,1,0,0,0,0,0,0,0
991040459,0,0.0,0.0,0,-5.35961,1.04876,1.43402,0.0,0.0,0.0,-0.0163774,0.0046449,-0.0071081,0.0,0.0,0.0,0.0,0.0,0.0,0.115862,0.0,0.0,0.0,0.0,0.0,0,1,1,1,1,0,0,0,0,0,0,0
991045604,0,0.0,0.0,0,-5.35969,1.04878,1.43399,0.0,0.0,0.0,-0.0167711,0.00479418,-0.00729058,0.0,0.0,0.0,0.0,0.0,0.0,0.115861,0.0,0.0,0.0,0.0,0.0,0,1,1,1,1,0,0,0,0,0,0,0
991050773,0,0.0,0.0,0,-5.35978,1.04881,1.43395,0.0,0.0,0.0,-0.0172022,0.00487719,-0.00754175,0.0,0.0,0.0,0.0,0.0,0.0,0.115861,0.0,0.0,0.0,0.0,0.0,0,1,1,1,1,0,0,0,0,0,0,0
991055542,0,0.0,0.0,0,-5.35987,1.04883,1.43391,0.0,0.0,0.0,-0.0177317,0.00504437,-0.00778081,0.0,0.0,0.0,0.0,0.0,0.0,0.115857,0.0,0.0,0.0,0.0,0.0,0,1,1,1,1,0,0,0,0,0,0,0
991060588,0,0.0,0.0,0,-5.35996,1.04886,1.43387,0.0,0.0,0.0,-0.0183415,0.00528764,-0.00792897,0.0,0.0,0.0,0.0,0.0,0.0,0.115857,0.0,0.0,0.0,0.0,0.0,0,1,1,1,1,0,0,0,0,0,0,0
991065669,0,0.0,0.0,0,-5.36005,1.04888,1.43383,0.0,0.0,0.0,-0.0189028,0.00542909,-0.00806788,0.0,0.0,0.0,0.0,0.0,0.0,0.115859,0.0,0.0,0.0,0.0,0.0,0,1,1,1,1,0,0,0,0,0,0,0
991070889,0,0.0,0.0,0,-5.36015,1.04891,1.43379,0.0,0.0,0.0,-0.0193776,0.00558085,-0.00822484,0.0,0.0,0.0,0.0,0.0,0.0,0.115858,0.0,0.0,0.0,0.0,0.0,0,1,1,1,1,0,0,0,0,0,0,0
991075493,0,0.0,0.0,0,-5.36025,1.04894,1.43375,0.0,0.0,0.0,-0.019847,0.00568485,-0.0084005,0.0,0.0,0.0,0.0,0.0,0.0,0.115858,0.0,0.0,0.0,0.0,0.0,0,1,1,1,1,0,0,0,0,0,0,0
991080589,0,0.0,0.0,0,-5.36035,1.04897,1.4337,0.0,0.0,0.0,-0.0203677,0.00575583,-0.00850304,0.0,0.0,0.0,0.0,0.0,0.0,0.11586,0.0,0.0,0.0,0.0,0.0,0,1,1,1,1,0,0,0,0,0,0,0
991085502,0,0.0,0.0,0,-5.36046,1.049,1.43366,0.0,0.0,0.0,-0.020847,0.0059384,-0.00867649,0.0,0.0,0.0,0.0,0.0,0.0,0.115856,0.0,0.0,0.0,0.0,0.0,0,1,1,1,1,0,0,0,0,0,0,0
991090589,0,0.0,0.0,0,-5.36056,1.04903,1.43362,0.0,0.0,0.0,-0.0213672,0.00612889,-0.00883739,0.0,0.0,0.0,0.0,0.0,0.0,0.11585,0.0,0.0,0.0,0.0,0.0,0,1,1,1,1,0,0,0,0,0,0,0
991095674,0,0.0,0.0,0,-5.36067,1.04906,1.43357,0.0,0.0,0.0,-0.0218641,0.00635309,-0.0090628,0.0,0.0,0.0,0.0,0.0,0.0,0.11585,0.0,0.0,0.0,0.0,0.0,0,1,1,1,1,0,0,0,0,0,0,0
991100610,0,0.0,0.0,0,-5.36078,1.04909,1.43352,0.0,0.0,0.0,-0.022407,0.00653236,-0.00924644,0.0,0.0,0.0,0.0,0.0,0.0,0.115852,0.0,0.0,0.0,0.0,0.0,0,1,1,1,1,0,0,0,0,0,0,0
991105532,0,0.0,0.0,0,-5.3609,1.04913,1.43348,0.0,0.0,0.0,-0.0229825,0.0066478,-0.00941597,0.0,0.0,0.0,0.0,0.0,0.0,0.115854,0.0,0.0,0.0,0.0,0.0,0,1,1,1,1,0,0,0,0,0,0,0
991110545,0,0.0,0.0,0,-5.36102,1.04916,1.43343,0.0,0.0,0.0,-0.0235798,0.00684028,-0.00959088,0.0,0.0,0.0,0.0,0.0,0.0,0.115853,0.0,0.0,0.0,0.0,0.0,0,1,1,1,1,0,0,0,0,0,0,0
991116322,0,0.0,0.0,0,-5.35845,1.04954,1.43488,0.0,0.0,0.0,-0.0126382,0.0062532,-0.00448449,0.0,0.0,0.0,0.0,0.0,0.0,0.115747,0.0,0.0,0.0,0.0,0.0,0,1,1,1,1,0,0,0,0,0,0,0
991120609,0,0.0,0.0,0,-5.35851,1.04957,1.43486,0.0,0.0,0.0,-0.0131992,0.00639582,-0.0045281,0.0,0.0,0.0,0.0,0.0,0.0,0.115743,0.0,0.0,0.0,0.0,0.0,0,1,1,1,1,0,0,0,0,0,0,0
991125567,0,0.0,0.0,0,-5.35858,1.04961,1.43484,0.0,0.0,0.0,-0.0137789,0.00655071,-0.00465849,0.0,0.0,0.0,0.0,0.0,0.0,0.115737,0.0,0.0,0.0,0.0,0.0,0,1,1,1,1,0,0,0,0,0,0,0
991130803,0,0.0,0.0,0,-5.35865,1.04964,1.43481,0.0,0.0,0.0,-0.014299,0.00674571,-0.00474784,0.0,0.0,0.0,0.0,0.0,0.0,0.115736,0.0,0.0,0.0,0.0,0.0,0,1,1,1,1,0,0,0,0,0,0,0
991135683,0,0.0,0.0,0,-5.35873,1.04968,1.43479,0.0,0.0,0.0,-0.0148011,0.00692672,-0.00484511,0.0,0.0,0.0,0.0,0.0,0.0,0.115744,0.0,0.0,0.0,0.0,0.0,0,1,1,1,1,0,0,0,0,0,0,0
991140638,0,0.0,0.0,0,-5.3588,1.04971,1.43476,0.0,0.0,0.0,-0.0153568,0.00707984,-0.00501151,0.0,0.0,0.0,0.0,0.0,0.0,0.115745,0.0,0.0,0.0,0.0,0.0,0,1,1,1,1,0,0,0,0,0,0,0
991145902,0,0.0,0.0,0,-5.35888,1.04975,1.43474,0.0,0.0,0.0,-0.0159281,0.00725415,-0.00524527,0.0,0.0,0.0,0.0,0.0,0.0,0.115744,0.0,0.0,0.0,0.0,0.0,0,1,1,1,1,0,0,0,0,0,0,0
991150933,0,0.0,0.0,0,-5.35897,1.04978,1.43471,0.0,0.0,0.0,-0.0165254,0.00735526,-0.00540942,0.0,0.0,0.0,0.0,0.0,0.0,0.115746,0.0,0.0,0.0,0.0,0.0,0,1,1,1,1,0,0,0,0,0,0,0
991155753,0,0.0,0.0,0,-5.35905,1.04982,1.43468,0.0,0.0,0.0,-0.0171327,0.00756687,-0.00560375,0.0,0.0,0.0,0.0,0.0,0.0,0.115748,0.0,0.0,0.0,0.0,0.0,0,1,1,1,1,0,0,0,0,0,0,0
991160612,0,0.0,0.0,0,-5.35914,1.04986,1.43465,0.0,0.0,0.0,-0.0177701,0.00775389,-0.00584812,0.0,0.0,0.0,0.0,0.0,0.0,0.11575,0.0,0.0,0.0,0.0,0.0,0,1,1,1,1,0,0,0,0,0,0,0
991165769,0,0.0,0.0,0,-5.35923,1.0499,1.43462,0.0,0.0,0.0,-0.0183211,0.00793385,-0.00597186,0.0,0.0,0.0,0.0,0.0,0.0,0.115749,0.0,0.0,0.0,0.0,0.0,0,1,1,1,1,0,0,0,0,0,0,0
991170942,0,0.0,0.0,0,-5.35933,1.04994,1.43459,0.0,0.0,0.0,-0.0188287,0.00805552,-0.00606756,0.0,0.0,0.0,0.0,0.0,0.0,0.115749,0.0,0.0,0.0,0.0,0.0,0,1,1,1,1,0,0,0,0,0,0,0
991175985,0,0.0,0.0,0,-5.35943,1.04998,1.43456,0.0,0.0,0.0,-0.0193496,0.00821459,-0.00620728,0.0,0.0,0.0,0.0,0.0,0.0,0.115751,0.0,0.0,0.0,0.0,0.0,0,1,1,1,1,0,0,0,0,0,0,0
991180662,0,0.0,0.0,0,-5.35952,1.05002,1.43453,0.0,0.0,0.0,-0.0198735,0.00842451,-0.0063916,0.0,0.0,0.0,0.0,0.0,0.0,0.115753,0.0,0.0,0.0,0.0,0.0,0,1,1,1,1,0,0,0,0,0,0,0
991185832,0,0.0,0.0,0,-5.35963,1.05007,1.4345,0.0,0.0,0.0,-0.0204055,0.00862963,-0.00657963,0.0,0.0,0.0,0.0,0.0,0.0,0.115755,0.0,0.0,0.0,0.0,0.0,0,1,1,1,1,0,0,0,0,0,0,0
991190691,0,0.0,0.0,0,-5.35973,1.05011,1.43446,0.0,0.0,0.0,-0.020881,0.00887904,-0.00689651,0.0,0.0,0.0,0.0,0.0,0.0,0.115759,0.0,0.0,0.0,0.0,0.0,0,1,1,1,1,0,0,0,0,0,0,0
991195818,0,0.0,0.0,0,-5.35984,1.05016,1.43443,0.0,0.0,0.0,-0.0213833,0.00909063,-0.00713676,0.0,0.0,0.0,0.0,0.0,0.0,0.115767,0.0,0.0,0.0,0.0,0.0,0,1,1,1,1,0,0,0,0,0,0,0
991200911,0,0.0,0.0,0,-5.35995,1.0502,1.43439,0.0,0.0,0.0,-0.0219782,0.00932192,-0.00722129,0.0,0.0,0.0,0.0,0.0,0.0,0.115763,0.0,0.0,0.0,0.0,0.0,0,1,1,1,1,0,0,0,0,0,0,0
991205705,0,0.0,0.0,0,-5.36006,1.05025,1.43435,0.0,0.0,0.0,-0.022615,0.00953206,-0.00731221,0.0,0.0,0.0,0.0,0.0,0.0,0.115757,0.0,0.0,0.0,0.0,0.0,0,1,1,1,1,0,0,0,0,0,0,0
991215685,0,0.0,0.0,0,-5.3603,1.05035,1.43428,0.0,0.0,0.0,-0.023789,0.00989337,-0.00746334,0.0,0.0,0.0,0.0,0.0,0.0,0.115758,0.0,0.0,0.0,0.0,0.0,0,1,1,1,1,0,0,0,0,0,0,0
991220692,0,0.0,0.0,0,-5.36042,1.0504,1.43424,0.0,0.0,0.0,-0.0242053,0.0100691,-0.00760591,0.0,0.0,0.0,0.0,0.0,0.0,0.115752,0.0,0.0,0.0,0.0,0.0,0,1,1,1,1,0,0,0,0,0,0,0
991225898,0,0.0,0.0,0,-5.35685,1.05114,1.43643,0.0,0.0,0.0,-0.0120141,0.0102586,-0.00114415,0.0,0.0,0.0,0.0,0.0,0.0,0.115702,0.0,0.0,0.0,0.0,0.0,0,1,1,1,1,0,0,0,0,0,0,0
991231100,0,0.0,0.0,0,-5.35691,1.0512,1.43642,0.0,0.0,0.0,-0.0125758,0.0104614,-0.00136814,0.0,0.0,0.0,0.0,0.0,0.0,0.115702,0.0,0.0,0.0,0.0,0.0,0,1,1,1,1,0,0,0,0,0,0,0
991235943,0,0.0,0.0,0,-5.35698,1.05125,1.43641,0.0,0.0,0.0,-0.0131625,0.0105464,-0.00152541,0.0,0.0,0.0,0.0,0.0,0.0,0.115704,0.0,0.0,0.0,0.0,0.0,0,1,1,1,1,0,0,0,0,0,0,0
991240753,0,0.0,0.0,0,-5.35705,1.0513,1.4364,0.0,0.0,0.0,-0.0136913,0.0106926,-0.00157891,0.0,0.0,0.0,0.0,0.0,0.0,0.115705,0.0,0.0,0.0,0.0,0.0,0,1,1,1,1,0,0,0,0,0,0,0
991246183,0,0.0,0.0,0,-5.35712,1.05136,1.4364,0.0,0.0,0.0,-0.0141703,0.0109483,-0.00166397,0.0,0.0,0.0,0.0,0.0,0.0,0.115707,0.0,0.0,0.0,0.0,0.0,0,1,1,1,1,0,0,0,0,0,0,0
991250811,0,0.0,0.0,0,-5.35719,1.05141,1.43639,0.0,0.0,0.0,-0.0146647,0.01128,-0.00186916,0.0,0.0,0.0,0.0,0.0,0.0,0.115709,0.0,0.0,0.0,0.0,0.0,0,1,1,1,1,0,0,0,0,0,0,0
991256037,0,0.0,0.0,0,-5.35727,1.05147,1.43638,0.0,0.0,0.0,-0.0152196,0.0115624,-0.00198078,0.0,0.0,0.0,0.0,0.0,0.0,0.115711,0.0,0.0,0.0,0.0,0.0,0,1,1,1,1,0,0,0,0,0,0,0
991260787,0,0.0,0.0,0,-5.35735,1.05153,1.43637,0.0,0.0,0.0,-0.0158003,0.0118038,-0.0020038,0.0,0.0,0.0,0.0,0.0,0.0,0.115713,0.0,0.0,0.0,0.0,0.0,0,1,1,1,1,0,0,0,0,0,0,0
991265892,0,0.0,0.0,0,-5.35743,1.05159,1.43636,0.0,0.0,0.0,-0.0163404,0.0119377,-0.00206854,0.0,0.0,0.0,0.0,0.0,0.0,0.115714,0.0,0.0,0.0,0.0,0.0,0,1,1,1,1,0,0,0,0,0,0,0
991271078,0,0.0,0.0,0,-5.35751,1.05165,1.43635,0.0,0.0,0.0,-0.0167967,0.0120267,-0.00230005,0.0,0.0,0.0,0.0,0.0,0.0,0.115719,0.0,0.0,0.0,0.0,0.0,0,1,1,1,1,0,0,0,0,0,0,0
991275812,0,0.0,0.0,0,-5.3576,1.05171,1.43633,0.0,0.0,0.0,-0.0174126,0.0122132,-0.00250257,0.0,0.0,0.0,0.0,0.0,0.0,0.115729,0.0,0.0,0.0,0.0,0.0,0,1,1,1,1,0,0,0,0,0,0,0
991281110,0,0.0,0.0,0,-5.35769,1.05177,1.43632,0.0,0.0,0.0,-0.0180181,0.0123898,-0.00264189,0.0,0.0,0.0,0.0,0.0,0.0,0.115736,0.0,0.0,0.0,0.0,0.0,0,1,1,1,1,0,0,0,0,0,0,0
991286028,0,0.0,0.0,0,-5.35778,1.05184,1.4363,0.0,0.0,0.0,-0.0185749,0.0125495,-0.00289651,0.0,0.0,0.0,0.0,0.0,0.0,0.115738,0.0,0.0,0.0,0.0,0.0,0,1,1,1,1,0,0,0,0,0,0,0
991290990,0,0.0,0.0,0,-5.35788,1.0519,1.43629,0.0,0.0,0.0,-0.0190811,0.0126698,-0.00301309,0.0,0.0,0.0,0.0,0.0,0.0,0.115743,0.0,0.0,0.0,0.0,0.0,0,1,1,1,1,0,0,0,0,0,0,0
991295819,0,0.0,0.0,0,-5.35798,1.05197,1.43627,0.0,0.0,0.0,-0.0195135,0.0127619,-0.00297269,0.0,0.0,0.0,0.0,0.0,0.0,0.115747,0.0,0.0,0.0,0.0,0.0,0,1,1,1,1,0,0,0,0,0,0,0
991300827,0,0.0,0.0,0,-5.35808,1.05203,1.43626,0.0,0.0,0.0,-0.0199949,0.0129456,-0.0030677,0.0,0.0,0.0,0.0,0.0,0.0,0.115747,0.0,0.0,0.0,0.0,0.0,0,1,1,1,1,0,0,0,0,0,0,0
991305927,0,0.0,0.0,0,-5.35818,1.0521,1.43624,0.0,0.0,0.0,-0.0204647,0.0131164,-0.00329304,0.0,0.0,0.0,0.0,0.0,0.0,0.115743,0.0,0.0,0.0,0.0,0.0,0,1,1,1,1,0,0,0,0,0,0,0
991311126,0,0.0,0.0,0,-5.35828,1.05216,1.43623,0.0,0.0,0.0,-0.0209564,0.013283,-0.00339925,0.0,0.0,0.0,0.0,0.0,0.0,0.115742,0.0,0.0,0.0,0.0,0.0,0,1,1,1,1,0,0,0,0,0,0,0
991316109,0,0.0,0.0,0,-5.35839,1.05223,1.43621,0.0,0.0,0.0,-0.0215114,0.0134244,-0.00339272,0.0,0.0,0.0,0.0,0.0,0.0,0.115739,0.0,0.0,0.0,0.0,0.0,0,1,1,1,1,0,0,0,0,0,0,0
991326081,0,0.0,0.0,0,-5.35458,1.05136,1.43687,0.0,0.0,0.0,-0.00879311,0.00976168,-0.00038927,0.0,0.0,0.0,0.0,0.0,0.0,0.115573,0.0,0.0,0.0,0.0,0.0,0,1,1,1,1,0,0,0,0,0,0,0
991331048,0,0.0,0.0,0,-5.35462,1.05141,1.43686,0.0,0.0,0.0,-0.00927972,0.00986675,-0.000587228,0.0,0.0,0.0,0.0,0.0,0.0,0.115567,0.0,0.0,0.0,0.0,0.0,0,1,1,1,1,0,0,0,0,0,0,0
991336328,0,0.0,0.0,0,-5.35467,1.05146,1.43686,0.0,0.0,0.0,-0.00976852,0.00999189,-0.000773698,0.0,0.0,0.0,0.0,0.0,0.0,0.115563,0.0,0.0,0.0,0.0,0.0,0,1,1,1,1,0,0,0,0,0,0,0
991341067,0,0.0,0.0,0,-5.35472,1.05151,1.43686,0.0,0.0,0.0,-0.0103182,0.0101259,-0.00095887,0.0,0.0,0.0,0.0,0.0,0.0,0.115554,0.0,0.0,0.0,0.0,0.0,0,1,1,1,1,0,0,0,0,0,0,0
991345933,0,0.0,0.0,0,-5.35478,1.05156,1.43685,0.0,0.0,0.0,-0.0109395,0.0103025,-0.00100524,0.0,0.0,0.0,0.0,0.0,0.0,0.115542,0.0,0.0,0.0,0.0,0.0,0,1,1,1,1,0,0,0,0,0,0,0
991350984,0,0.0,0.0,0,-5.35484,1.05161,1.43684,0.0,0.0,0.0,-0.011508,0.0104964,-0.00112832,0.0,0.0,0.0,0.0,0.0,0.0,0.115536,0.0,0.0,0.0,0.0,0.0,0,1,1,1,1,0,0,0,0,0,0,0
991356009,0,0.0,0.0,0,-5.3549,1.05167,1.43684,0.0,0.0,0.0,-0.0120971,0.0108138,-0.00136461,0.0,0.0,0.0,0.0,0.0,0.0,0.115532,0.0,0.0,0.0,0.0,0.0,0,1,1,1,1,0,0,0,0,0,0,0
991360905,0,0.0,0.0,0,-5.35496,1.05172,1.43683,0.0,0.0,0.0,-0.0127224,0.0110031,-0.00157316,0.0,0.0,0.0,0.0,0.0,0.0,0.115531,0.0,0.0,0.0,0.0,0.0,0,1,1,1,1,0,0,0,0,0,0,0
991366189,0,0.0,0.0,0,-5.35503,1.05178,1.43682,0.0,0.0,0.0,-0.0133574,0.0110806,-0.00171154,0.0,0.0,0.0,0.0,0.0,0.0,0.115533,0.0,0.0,0.0,0.0,0.0,0,1,1,1,1,0,0,0,0,0,0,0
991371377,0,0.0,0.0,0,-5.3551,1.05184,1.43681,0.0,0.0,0.0,-0.0138322,0.0112262,-0.00183566,0.0,0.0,0.0,0.0,0.0,0.0,0.115529,0.0,0.0,0.0,0.0,0.0,0,1,1,1,1,0,0,0,0,0,0,0
991376572,0,0.0,0.0,0,-5.35517,1.05189,1.4368,0.0,0.0,0.0,-0.0142859,0.0113763,-0.00187739,0.0,0.0,0.0,0.0,0.0,0.0,0.115523,0.0,0.0,0.0,0.0,0.0,0,1,1,1,1,0,0,0,0,0,0,0
991381017,0,0.0,0.0,0,-5.35524,1.05195,1.43679,0.0,0.0,0.0,-0.0147506,0.0115531,-0.00192345,0.0,0.0,0.0,0.0,0.0,0.0,0.115525,0.0,0.0,0.0,0.0,0.0,0,1,1,1,1,0,0,0,0,0,0,0
991385969,0,0.0,0.0,0,-5.35532,1.05201,1.43678,0.0,0.0,0.0,-0.0152894,0.0116884,-0.00219585,0.0,0.0,0.0,0.0,0.0,0.0,0.115532,0.0,0.0,0.0,0.0,0.0,0,1,1,1,1,0,0,0,0,0,0,0
991391643,0,0.0,0.0,0,-5.3554,1.05207,1.43677,0.0,0.0,0.0,-0.0159137,0.0118599,-0.00253826,0.0,0.0,0.0,0.0,0.0,0.0,0.115536,0.0,0.0,0.0,0.0,0.0,0,1,1,1,1,0,0,0,0,0,0,0
991396022,0,0.0,0.0,0,-5.35548,1.05213,1.43676,0.0,0.0,0.0,-0.0165467,0.0121177,-0.00272461,0.0,0.0,0.0,0.0,0.0,0.0,0.115533,0.0,0.0,0.0,0.0,0.0,0,1,1,1,1,0,0,0,0,0,0,0
991401029,0,0.0,0.0,0,-5.35557,1.05219,1.43674,0.0,0.0,0.0,-0.0170826,0.0122665,-0.00293817,0.0,0.0,0.0,0.0,0.0,0.0,0.115526,0.0,0.0,0.0,0.0,0.0,0,1,1,1,1,0,0,0,0,0,0,0
991406218,0,0.0,0.0,0,-5.35565,1.05225,1.43672,0.0,0.0,0.0,-0.0175507,0.0123827,-0.00318806,0.0,0.0,0.0,0.0,0.0,0.0,0.115525,0.0,0.0,0.0,0.0,0.0,0,1,1,1,1,0,0,0,0,0,0,0
991416325,0,0.0,0.0,0,-5.35321,1.05067,1.43707,0.0,0.0,0.0,-0.00666326,0.00700196,-0.000569712,0.0,0.0,0.0,0.0,0.0,0.0,0.115545,0.0,0.0,0.0,0.0,0.0,0,1,1,1,1,0,0,0,0,0,0,0
991421251,0,0.0,0.0,0,-5.35324,1.0507,1.43707,0.0,0.0,0.0,-0.00725261,0.00709642,-0.000757307,0.0,0.0,0.0,0.0,0.0,0.0,0.115544,0.0,0.0,0.0,0.0,0.0,0,1,1,1,1,0,0,0,0,0,0,0
991426187,0,0.0,0.0,0,-5.35328,1.05074,1.43706,0.0,0.0,0.0,-0.00779712,0.00724411,-0.000967101,0.0,0.0,0.0,0.0,0.0,0.0,0.115548,0.0,0.0,0.0,0.0,0.0,0,1,1,1,1,0,0,0,0,0,0,0
991431058,0,0.0,0.0,0,-5.35332,1.05077,1.43706,0.0,0.0,0.0,-0.00836474,0.00745478,-0.00110682,0.0,0.0,0.0,0.0,0.0,0.0,0.115547,0.0,0.0,0.0,0.0,0.0,0,1,1,1,1,0,0,0,0,0,0,0
991436360,0,0.0,0.0,0,-5.35337,1.05081,1.43705,0.0,0.0,0.0,-0.00895204,0.00767352,-0.0011396,0.0,0.0,0.0,0.0,0.0,0.0,0.115541,0.0,0.0,0.0,0.0,0.0,0,1,1,1,1,0,0,0,0,0,0,0
991441006,0,0.0,0.0,0,-5.35342,1.05085,1.43705,0.0,0.0,0.0,-0.0094791,0.00782739,-0.00117613,0.0,0.0,0.0,0.0,0.0,0.0,0.11554,0.0,0.0,0.0,0.0,0.0,0,1,1,1,1,0,0,0,0,0,0,0
991446095,0,0.0,0.0,0,-5.35347,1.05089,1.43704,0.0,0.0,0.0,-0.0100341,0.00797166,-0.00132632,0.0,0.0,0.0,0.0,0.0,0.0,0.115539,0.0,0.0,0.0,0.0,0.0,0,1,1,1,1,0,0,0,0,0,0,0
991451349,0,0.0,0.0,0,-5.35352,1.05093,1.43703,0.0,0.0,0.0,-0.0104764,0.00814072,-0.00153119,0.0,0.0,0.0,0.0,0.0,0.0,0.115528,0.0,0.0,0.0,0.0,0.0,0,1,1,1,1,0,0,0,0,0,0,0
991456028,0,0.0,0.0,0,-5.35357,1.05097,1.43702,0.0,0.0,0.0,-0.0108835,0.00831784,-0.00174886,0.0,0.0,0.0,0.0,0.0,0.0,0.115513,0.0,0.0,0.0,0.0,0.0,0,1,1,1,1,0,0,0,0,0,0,0
991461204,0,0.0,0.0,0,-5.35363,1.05102,1.43701,0.0,0.0,0.0,-0.0113917,0.00838072,-0.00187828,0.0,0.0,0.0,0.0,0.0,0.0,0.115504,0.0,0.0,0.0,0.0,0.0,0,1,1,1,1,0,0,0,0,0,0,0
991466097,0,0.0,0.0,0,-5.35369,1.05106,1.437,0.0,0.0,0.0,-0.0119415,0.00842762,-0.00197082,0.0,0.0,0.0,0.0,0.0,0.0,0.115498,0.0,0.0,0.0,0.0,0.0,0,1,1,1,1,0,0,0,0,0,0,0
991471343,0,0.0,0.0,0,-5.35375,1.0511,1.43699,0.0,0.0,0.0,-0.0123849,0.00856054,-0.00200874,0.0,0.0,0.0,0.0,0.0,0.0,0.115497,0.0,0.0,0.0,0.0,0.0,0,1,1,1,1,0,0,0,0,0,0,0
991476490,0,0.0,0.0,0,-5.35382,1.05115,1.43698,0.0,0.0,0.0,-0.0128235,0.00873441,-0.0022295,0.0,0.0,0.0,0.0,0.0,0.0,0.115496,0.0,0.0,0.0,0.0,0.0,0,1,1,1,1,0,0,0,0,0,0,0
991481098,0,0.0,0.0,0,-5.35388,1.05119,1.43697,0.0,0.0,0.0,-0.0133347,0.00886978,-0.00253847,0.0,0.0,0.0,0.0,0.0,0.0,0.115498,0.0,0.0,0.0,0.0,0.0,0,1,1,1,1,0,0,0,0,0,0,0
991486240,0,0.0,0.0,0,-5.35395,1.05123,1.43696,0.0,0.0,0.0,-0.0138585,0.00892606,-0.00271087,0.0,0.0,0.0,0.0,0.0,0.0,0.115497,0.0,0.0,0.0,0.0,0.0,0,1,1,1,1,0,0,0,0,0,0,0
991491867,0,0.0,0.0,0,-5.35402,1.05128,1.43694,0.0,0.0,0.0,-0.014434,0.00898082,-0.00283468,0.0,0.0,0.0,0.0,0.0,0.0,0.115491,0.0,0.0,0.0,0.0,0.0,0,1,1,1,1,0,0,0,0,0,0,0
991496336,0,0.0,0.0,0,-5.3541,1.05133,1.43693,0.0,0.0,0.0,-0.0149297,0.00909497,-0.00304871,0.0,0.0,0.0,0.0,0.0,0.0,0.115488,0.0,0.0,0.0,0.0,0.0,0,1,1,1,1,0,0,0,0,0,0,0
991501069,0,0.0,0.0,0,-5.35418,1.05137,1.43691,0.0,0.0,0.0,-0.0153921,0.00928332,-0.00314284,0.0,0.0,0.0,0.0,0.0,0.0,0.115484,0.0,0.0,0.0,0.0,0.0,0,1,1,1,1,0,0,0,0,0,0,0
991506192,0,0.0,0.0,0,-5.35426,1.05142,1.4369,0.0,0.0,0.0,-0.0159471,0.00943976,-0.00328541,0.0,0.0,0.0,0.0,0.0,0.0,0.115486,0.0,0.0,0.0,0.0,0.0,0,1,1,1,1,0,0,0,0,0,0,0
991511157,0,0.0,0.0,0,-5.35434,1.05147,1.43688,0.0,0.0,0.0,-0.0164336,0.00951308,-0.00358948,0.0,0.0,0.0,0.0,0.0,0.0,0.115493,0.0,0.0,0.0,0.0,0.0,0,1,1,1,1,0,0,0,0,0,0,0
991516294,0,0.0,0.0,0,-5.35442,1.05151,1.43686,0.0,0.0,0.0,-0.0168795,0.00957379,-0.0039495,0.0,0.0,0.0,0.0,0.0,0.0,0.115495,0.0,0.0,0.0,0.0,0.0,0,1,1,1,1,0,0,0,0,0,0,0
991521143,0,0.0,0.0,0,-5.35451,1.05156,1.43684,0.0,0.0,0.0,-0.0173967,0.00971373,-0.00410835,0.0,0.0,0.0,0.0,0.0,0.0,0.115494,0.0,0.0,0.0,0.0,0.0,0,1,1,1,1,0,0,0,0,0,0,0
991526133,0,0.0,0.0,0,-5.3546,1.05161,1.43682,0.0,0.0,0.0,-0.0178393,0.00987125,-0.00422595,0.0,0.0,0.0,0.0,0.0,0.0,0.115496,0.0,0.0,0.0,0.0,0.0,0,1,1,1,1,0,0,0,0,0,0,0
991531588,0,0.0,0.0,0,-5.35469,1.05166,1.43679,0.0,0.0,0.0,-0.0183747,0.00986947,-0.00434534,0.0,0.0,0.0,0.0,0.0,0.0,0.115497,0.0,0.0,0.0,0.0,0.0,0,1,1,1,1,0,0,0,0,0,0,0
991536127,0,0.0,0.0,0,-5.35298,1.0511,1.43724,0.0,0.0,0.0,-0.00874176,0.00702612,-0.00135667,0.0,0.0,0.0,0.0,0.0,0.0,0.115439,0.0,0.0,0.0,0.0,0.0,0,1,1,1,1,0,0,0,0,0,0,0
991541200,0,0.0,0.0,0,-5.35303,1.05113,1.43724,0.0,0.0,0.0,-0.0093583,0.00713005,-0.00134546,0.0,0.0,0.0,0.0,0.0,0.0,0.115436,0.0,0.0,0.0,0.0,0.0,0,1,1,1,1,0,0,0,0,0,0,0
991546223,0,0.0,0.0,0,-5.35308,1.05117,1.43723,0.0,0.0,0.0,-0.00988157,0.00732323,-0.00161516,0.0,0.0,0.0,0.0,0.0,0.0,0.115438,0.0,0.0,0.0,0.0,0.0,0,1,1,1,1,0,0,0,0,0,0,0
991551278,0,0.0,0.0,0,-5.35313,1.05121,1.43722,0.0,0.0,0.0,-0.0103881,0.00756974,-0.00192609,0.0,0.0,0.0,0.0,0.0,0.0,0.115439,0.0,0.0,0.0,0.0,0.0,0,1,1,1,1,0,0,0,0,0,0,0
991556212,0,0.0,0.0,0,-5.35318,1.05124,1.43721,0.0,0.0,0.0,-0.0109659,0.00778123,-0.00216732,0.0,0.0,0.0,0.0,0.0,0.0,0.115436,0.0,0.0,0.0,0.0,0.0,0,1,1,1,1,0,0,0,0,0,0,0
991561197,0,0.0,0.0,0,-5.35324,1.05129,1.43719,0.0,0.0,0.0,-0.0114891,0.00803964,-0.00239915,0.0,0.0,0.0,0.0,0.0,0.0,0.115427,0.0,0.0,0.0,0.0,0.0,0,1,1,1,1,0,0,0,0,0,0,0
991566154,0,0.0,0.0,0,-5.3533,1.05133,1.43718,0.0,0.0,0.0,-0.0119358,0.00836381,-0.00260674,0.0,0.0,0.0,0.0,0.0,0.0,0.115426,0.0,0.0,0.0,0.0,0.0,0,1,1,1,1,0,0,0,0,0,0,0
991571652,0,0.0,0.0,0,-5.35336,1.05137,1.43717,0.0,0.0,0.0,-0.0123891,0.00858967,-0.0026814,0.0,0.0,0.0,0.0,0.0,0.0,0.115428,0.0,0.0,0.0,0.0,0.0,0,1,1,1,1,0,0,0,0,0,0,0
991576169,0,0.0,0.0,0,-5.35343,1.05141,1.43715,0.0,0.0,0.0,-0.0128535,0.00879591,-0.00286588,0.0,0.0,0.0,0.0,0.0,0.0,0.115424,0.0,0.0,0.0,0.0,0.0,0,1,1,1,1,0,0,0,0,0,0,0
991581178,0,0.0,0.0,0,-5.3535,1.05146,1.43714,0.0,0.0,0.0,-0.0134405,0.00891843,-0.00310459,0.0,0.0,0.0,0.0,0.0,0.0,0.11542,0.0,0.0,0.0,0.0,0.0,0,1,1,1,1,0,0,0,0,0,0,0
991586134,0,0.0,0.0,0,-5.35357,1.0515,1.43712,0.0,0.0,0.0,-0.0140588,0.00899131,-0.00344412,0.0,0.0,0.0,0.0,0.0,0.0,0.115417,0.0,0.0,0.0,0.0,0.0,0,1,1,1,1,0,0,0,0,0,0,0
991591232,0,0.0,0.0,0,-5.35364,1.05155,1.4371,0.0,0.0,0.0,-0.0145461,0.00915444,-0.00364676,0.0,0.0,0.0,0.0,0.0,0.0,0.11541,0.0,0.0,0.0,0.0,0.0,0,1,1,1,1,0,0,0,0,0,0,0
991596305,0,0.0,0.0,0,-5.35371,1.0516,1.43708,0.0,0.0,0.0,-0.0150941,0.00933697,-0.0037023,0.0,0.0,0.0,0.0,0.0,0.0,0.115401,0.0,0.0,0.0,0.0,0.0,0,1,1,1,1,0,0,0,0,0,0,0
991601604,0,0.0,0.0,0,-5.35379,1.05164,1.43707,0.0,0.0,0.0,-0.0156896,0.0094677,-0.00387001,0.0,0.0,0.0,0.0,0.0,0.0,0.1154,0.0,0.0,0.0,0.0,0.0,0,1,1,1,1,0,0,0,0,0,0,0
991606271,0,0.0,0.0,0,-5.35387,1.05169,1.43704,0.0,0.0,0.0,-0.0162815,0.00958469,-0.00415202,0.0,0.0,0.0,0.0,0.0,0.0,0.115402,0.0,0.0,0.0,0.0,0.0,0,1,1,1,1,0,0,0,0,0,0,0
991611386,0,0.0,0.0,0,-5.35396,1.05174,1.43702,0.0,0.0,0.0,-0.0168626,0.00971181,-0.00438723,0.0,0.0,0.0,0.0,0.0,0.0,0.115396,0.0,0.0,0.0,0.0,0.0,0,1,1,1,1,0,0,0,0,0,0,0
991616283,0,0.0,0.0,0,-5.35488,1.04877,1.43481,0.0,0.0,0.0,-0.0103964,0.00134152,-0.00724287,0.0,0.0,0.0,0.0,0.0,0.0,0.115553,0.0,0.0,0.0,0.0,0.0,0,1,1,1,1,0,0,0,0,0,0,0
991621242,0,0.0,0.0,0,-5.35493,1.04878,1.43477,0.0,0.0,0.0,-0.010863,0.00147126,-0.00745143,0.0,0.0,0.0,0.0,0.0,0.0,0.115552,0.0,0.0,0.0,0.0,0.0,0,1,1,1,1,0,0,0,0,0,0,0
991626348,0,0.0,0.0,0,-5.35499,1.04879,1.43473,0.0,0.0,0.0,-0.0113587,0.00157822,-0.00762722,0.0,0.0,0.0,0.0,0.0,0.0,0.115552,0.0,0.0,0.0,0.0,0.0,0,1,1,1,1,0,0,0,0,0,0,0
991631437,0,0.0,0.0,0,-5.35505,1.04879,1.43469,0.0,0.0,0.0,-0.011887,0.00169428,-0.00774322,0.0,0.0,0.0,0.0,0.0,0.0,0.115551,0.0,0.0,0.0,0.0,0.0,0,1,1,1,1,0,0,0,0,0,0,0
991636333,0,0.0,0.0,0,-5.35511,1.0488,1.43465,0.0,0.0,0.0,-0.0124393,0.00187068,-0.00789574,0.0,0.0,0.0,0.0,0.0,0.0,0.11555,0.0,0.0,0.0,0.0,0.0,0,1,1,1,1,0,0,0,0,0,0,0
991641346,0,0.0,0.0,0,-5.35517,1.04881,1.43461,0.0,0.0,0.0,-0.0129462,0.0020685,-0.00805775,0.0,0.0,0.0,0.0,0.0,0.0,0.115554,0.0,0.0,0.0,0.0,0.0,0,1,1,1,1,0,0,0,0,0,0,0
991646306,0,0.0,0.0,0,-5.35524,1.04883,1.43457,0.0,0.0,0.0,-0.0135374,0.0022419,-0.00814212,0.0,0.0,0.0,0.0,0.0,0.0,0.115562,0.0,0.0,0.0,0.0,0.0,0,1,1,1,1,0,0,0,0,0,0,0
991651373,0,0.0,0.0,0,-5.35531,1.04884,1.43453,0.0,0.0,0.0,-0.0141923,0.00233983,-0.00822316,0.0,0.0,0.0,0.0,0.0,0.0,0.115566,0.0,0.0,0.0,0.0,0.0,0,1,1,1,1,0,0,0,0,0,0,0
991656321,0,0.0,0.0,0,-5.35539,1.04885,1.43449,0.0,0.0,0.0,-0.0148487,0.00240815,-0.00836662,0.0,0.0,0.0,0.0,0.0,0.0,0.115571,0.0,0.0,0.0,0.0,0.0,0,1,1,1,1,0,0,0,0,0,0,0
991661545,0,0.0,0.0,0,-5.35546,1.04886,1.43445,0.0,0.0,0.0,-0.0154541,0.00252302,-0.00847682,0.0,0.0,0.0,0.0,0.0,0.0,0.115575,0.0,0.0,0.0,0.0,0.0,0,1,1,1,1,0,0,0,0,0,0,0
991666280,0,0.0,0.0,0,-5.35554,1.04888,1.4344,0.0,0.0,0.0,-0.0159624,0.00275681,-0.00861995,0.0,0.0,0.0,0.0,0.0,0.0,0.115575,0.0,0.0,0.0,0.0,0.0,0,1,1,1,1,0,0,0,0,0,0,0
991671647,0,0.0,0.0,0,-5.35563,1.04889,1.43436,0.0,0.0,0.0,-0.0164446,0.00296807,-0.00883426,0.0,0.0,0.0,0.0,0.0,0.0,0.115571,0.0,0.0,0.0,0.0,0.0,0,1,1,1,1,0,0,0,0,0,0,0
991676368,0,0.0,0.0,0,-5.35571,1.04891,1.43431,0.0,0.0,0.0,-0.0170101,0.00307246,-0.0090795,0.0,0.0,0.0,0.0,0.0,0.0,0.115568,0.0,0.0,0.0,0.0,0.0,0,1,1,1,1,0,0,0,0,0,0,0
991681470,0,0.0,0.0,0,-5.3558,1.04892,1.43427,0.0,0.0,0.0,-0.0175067,0.00315169,-0.00919141,0.0,0.0,0.0,0.0,0.0,0.0,0.115567,0.0,0.0,0.0,0.0,0.0,0,1,1,1,1,0,0,0,0,0,0,0
991686497,0,0.0,0.0,0,-5.35589,1.04894,1.43422,0.0,0.0,0.0,-0.0180204,0.00330925,-0.00927722,0.0,0.0,0.0,0.0,0.0,0.0,0.115569,0.0,0.0,0.0,0.0,0.0,0,1,1,1,1,0,0,0,0,0,0,0
991692365,0,0.0,0.0,0,-5.35598,1.04896,1.43417,0.0,0.0,0.0,-0.0186484,0.00355008,-0.00931904,0.0,0.0,0.0,0.0,0.0,0.0,0.115571,0.0,0.0,0.0,0.0,0.0,0,1,1,1,1,0,0,0,0,0,0,0
991696368,0,0.0,0.0,0,-5.35608,1.04897,1.43413,0.0,0.0,0.0,-0.0192145,0.00373155,-0.00948715,0.0,0.0,0.0,0.0,0.0,0.0,0.115573,0.0,0.0,0.0,0.0,0.0,0,1,1,1,1,0,0,0,0,0,0,0
991701392,0,0.0,0.0,0,-5.35618,1.04899,1.43408,0.0,0.0,0.0,-0.0197413,0.00380634,-0.00981935,0.0,0.0,0.0,0.0,0.0,0.0,0.115577,0.0,0.0,0.0,0.0,0.0,0,1,1,1,1,0,0,0,0,0,0,0
991706753,0,0.0,0.0,0,-5.35628,1.04901,1.43403,0.0,0.0,0.0,-0.0201323,0.00391346,-0.0101675,0.0,0.0,0.0,0.0,0.0,0.0,0.115582,0.0,0.0,0.0,0.0,0.0,0,1,1,1,1,0,0,0,0,0,0,0
991721417,0,0.0,0.0,0,-5.35331,1.04815,1.43484,0.0,0.0,0.0,-0.00870002,0.000855572,-0.0070113,0.0,0.0,0.0,0.0,0.0,0.0,0.115605,0.0,0.0,0.0,0.0,0.0,0,1,1,1,1,0,0,0,0,0,0,0
991726470,0,0.0,0.0,0,-5.35335,1.04816,1.4348,0.0,0.0,0.0,-0.00922055,0.000962052,-0.00728775,0.0,0.0,0.0,0.0,0.0,0.0,0.115604,0.0,0.0,0.0,0.0,0.0,0,1,1,1,1,0,0,0,0,0,0,0
991731440,0,0.0,0.0,0,-5.3534,1.04816,1.43476,0.0,0.0,0.0,-0.00985368,0.00110388,-0.00752305,0.0,0.0,0.0,0.0,0.0,0.0,0.115601,0.0,0.0,0.0,0.0,0.0,0,1,1,1,1,0,0,0,0,0,0,0
991736496,0,0.0,0.0,0,-5.35345,1.04817,1.43472,0.0,0.0,0.0,-0.0104451,0.00133593,-0.00772199,0.0,0.0,0.0,0.0,0.0,0.0,0.115597,0.0,0.0,0.0,0.0,0.0,0,1,1,1,1,0,0,0,0,0,0,0
991741437,0,0.0,0.0,0,-5.35351,1.04818,1.43468,0.0,0.0,0.0,-0.0110948,0.00152606,-0.00787893,0.0,0.0,0.0,0.0,0.0,0.0,0.115602,0.0,0.0,0.0,0.0,0.0,0,1,1,1,1,0,0,0,0,0,0,0
991746513,0,0.0,0.0,0,-5.35357,1.04819,1.43464,0.0,0.0,0.0,-0.0116956,0.00176492,-0.00808967,0.0,0.0,0.0,0.0,0.0,0.0,0.115599,0.0,0.0,0.0,0.0,0.0,0,1,1,1,1,0,0,0,0,0,0,0
991751405,0,0.0,0.0,0,-5.35363,1.0482,1.4346,0.0,0.0,0.0,-0.012272,0.00192388,-0.00840564,0.0,0.0,0.0,0.0,0.0,0.0,0.115588,0.0,0.0,0.0,0.0,0.0,0,1,1,1,1,0,0,0,0,0,0,0
991756544,0,0.0,0.0,0,-5.35369,1.04821,1.43456,0.0,0.0,0.0,-0.0128871,0.00192696,-0.00884324,0.0,0.0,0.0,0.0,0.0,0.0,0.115582,0.0,0.0,0.0,0.0,0.0,0,1,1,1,1,0,0,0,0,0,0,0
991761431,0,0.0,0.0,0,-5.35376,1.04822,1.43451,0.0,0.0,0.0,-0.0134283,0.00195583,-0.00921211,0.0,0.0,0.0,0.0,0.0,0.0,0.115581,0.0,0.0,0.0,0.0,0.0,0,1,1,1,1,0,0,0,0,0,0,0
991766506,0,0.0,0.0,0,-5.35383,1.04823,1.43446,0.0,0.0,0.0,-0.013914,0.00204292,-0.00939807,0.0,0.0,0.0,0.0,0.0,0.0,0.115583,0.0,0.0,0.0,0.0,0.0,0,1,1,1,1,0,0,0,0,0,0,0
991772043,0,0.0,0.0,0,-5.3539,1.04824,1.43442,0.0,0.0,0.0,-0.0144646,0.00221205,-0.00950955,0.0,0.0,0.0,0.0,0.0,0.0,0.115587,0.0,0.0,0.0,0.0,0.0,0,1,1,1,1,0,0,0,0,0,0,0
991776821,0,0.0,0.0,0,-5.35398,1.04825,1.43437,0.0,0.0,0.0,-0.0149577,0.00239909,-0.00968593,0.0,0.0,0.0,0.0,0.0,0.0,0.115594,0.0,0.0,0.0,0.0,0.0,0,1,1,1,1,0,0,0,0,0,0,0
991781548,0,0.0,0.0,0,-5.35406,1.04826,1.43432,0.0,0.0,0.0,-0.0154567,0.00249563,-0.00995464,0.0,0.0,0.0,0.0,0.0,0.0,0.115599,0.0,0.0,0.0,0.0,0.0,0,1,1,1,1,0,0,0,0,0,0,0
991786607,0,0.0,0.0,0,-5.35414,1.04828,1.43427,0.0,0.0,0.0,-0.0159574,0.00260922,-0.0101685,0.0,0.0,0.0,0.0,0.0,0.0,0.115598,0.0,0.0,0.0,0.0,0.0,0,1,1,1,1,0,0,0,0,0,0,0
991792244,0,0.0,0.0,0,-5.35422,1.04829,1.43421,0.0,0.0,0.0,-0.0165247,0.00280195,-0.0104303,0.0,0.0,0.0,0.0,0.0,0.0,0.115597,0.0,0.0,0.0,0.0,0.0,0,1,1,1,1,0,0,0,0,0,0,0
991796587,0,0.0,0.0,0,-5.3543,1.0483,1.43416,0.0,0.0,0.0,-0.0170625,0.00295991,-0.010601,0.0,0.0,0.0,0.0,0.0,0.0,0.115599,0.0,0.0,0.0,0.0,0.0,0,1,1,1,1,0,0,0,0,0,0,0
991801570,0,0.0,0.0,0,-5.35439,1.04832,1.43411,0.0,0.0,0.0,-0.0176016,0.00302876,-0.010797,0.0,0.0,0.0,0.0,0.0,0.0,0.115601,0.0,0.0,0.0,0.0,0.0,0,1,1,1,1,0,0,0,0,0,0,0
991811549,0,0.0,0.0,0,-5.35223,1.04983,1.4368,0.0,0.0,0.0,-0.00781432,0.00498765,-0.00266318,0.0,0.0,0.0,0.0,0.0,0.0,0.115513,0.0,0.0,0.0,0.0,0.0,0,1,1,1,1,0,0,0,0,0,0,0
991816541,0,0.0,0.0,0,-5.35227,1.04986,1.43679,0.0,0.0,0.0,-0.00841951,0.00508669,-0.00280366,0.0,0.0,0.0,0.0,0.0,0.0,0.115523,0.0,0.0,0.0,0.0,0.0,0,1,1,1,1,0,0,0,0,0,0,0
991821644,0,0.0,0.0,0,-5.35232,1.04988,1.43678,0.0,0.0,0.0,-0.00901657,0.00520905,-0.00303177,0.0,0.0,0.0,0.0,0.0,0.0,0.115525,0.0,0.0,0.0,0.0,0.0,0,1,1,1,1,0,0,0,0,0,0,0
991826605,0,0.0,0.0,0,-5.35237,1.04991,1.43676,0.0,0.0,0.0,-0.00961192,0.0053842,-0.00322579,0.0,0.0,0.0,0.0,0.0,0.0,0.115519,0.0,0.0,0.0,0.0,0.0,0,1,1,1,1,0,0,0,0,0,0,0
991831702,0,0.0,0.0,0,-5.35242,1.04994,1.43674,0.0,0.0,0.0,-0.0102868,0.00549407,-0.00338077,0.0,0.0,0.0,0.0,0.0,0.0,0.115515,0.0,0.0,0.0,0.0,0.0,0,1,1,1,1,0,0,0,0,0,0,0
991836594,0,0.0,0.0,0,-5.35247,1.04996,1.43672,0.0,0.0,0.0,-0.0108611,0.00551636,-0.00370183,0.0,0.0,0.0,0.0,0.0,0.0,0.115522,0.0,0.0,0.0,0.0,0.0,0,1,1,1,1,0,0,0,0,0,0,0
991841563,0,0.0,0.0,0,-5.35253,1.04999,1.4367,0.0,0.0,0.0,-0.0114194,0.00557357,-0.00398463,0.0,0.0,0.0,0.0,0.0,0.0,0.115532,0.0,0.0,0.0,0.0,0.0,0,1,1,1,1,0,0,0,0,0,0,0
991846660,0,0.0,0.0,0,-5.35259,1.05002,1.43668,0.0,0.0,0.0,-0.0119567,0.0056579,-0.00422912,0.0,0.0,0.0,0.0,0.0,0.0,0.115532,0.0,0.0,0.0,0.0,0.0,0,1,1,1,1,0,0,0,0,0,0,0
991851623,0,0.0,0.0,0,-5.35265,1.05005,1.43666,0.0,0.0,0.0,-0.0124505,0.00567358,-0.00453624,0.0,0.0,0.0,0.0,0.0,0.0,0.115525,0.0,0.0,0.0,0.0,0.0,0,1,1,1,1,0,0,0,0,0,0,0
991856865,0,0.0,0.0,0,-5.35272,1.05008,1.43664,0.0,0.0,0.0,-0.0129934,0.00568172,-0.00471947,0.0,0.0,0.0,0.0,0.0,0.0,0.11553,0.0,0.0,0.0,0.0,0.0,0,1,1,1,1,0,0,0,0,0,0,0
991861662,0,0.0,0.0,0,-5.35278,1.05011,1.43661,0.0,0.0,0.0,-0.0135463,0.00575056,-0.00482882,0.0,0.0,0.0,0.0,0.0,0.0,0.115539,0.0,0.0,0.0,0.0,0.0,0,1,1,1,1,0,0,0,0,0,0,0
991866909,0,0.0,0.0,0,-5.35285,1.05014,1.43659,0.0,0.0,0.0,-0.0140684,0.00583185,-0.00492345,0.0,0.0,0.0,0.0,0.0,0.0,0.115544,0.0,0.0,0.0,0.0,0.0,0,1,1,1,1,0,0,0,0,0,0,0
991871956,0,0.0,0.0,0,-5.35293,1.05016,1.43656,0.0,0.0,0.0,-0.014613,0.00592929,-0.00508511,0.0,0.0,0.0,0.0,0.0,0.0,0.115543,0.0,0.0,0.0,0.0,0.0,0,1,1,1,1,0,0,0,0,0,0,0
991876669,0,0.0,0.0,0,-5.353,1.05019,1.43654,0.0,0.0,0.0,-0.0150588,0.0060073,-0.00522488,0.0,0.0,0.0,0.0,0.0,0.0,0.115542,0.0,0.0,0.0,0.0,0.0,0,1,1,1,1,0,0,0,0,0,0,0
991881909,0,0.0,0.0,0,-5.35308,1.05023,1.43651,0.0,0.0,0.0,-0.0155426,0.00605946,-0.00544607,0.0,0.0,0.0,0.0,0.0,0.0,0.115546,0.0,0.0,0.0,0.0,0.0,0,1,1,1,1,0,0,0,0,0,0,0
991886826,0,0.0,0.0,0,-5.35316,1.05026,1.43648,0.0,0.0,0.0,-0.0160909,0.00618983,-0.00557684,0.0,0.0,0.0,0.0,0.0,0.0,0.115545,0.0,0.0,0.0,0.0,0.0,0,1,1,1,1,0,0,0,0,0,0,0
991891733,0,0.0,0.0,0,-5.35324,1.05029,1.43645,0.0,0.0,0.0,-0.0166666,0.00635501,-0.00560515,0.0,0.0,0.0,0.0,0.0,0.0,0.115536,0.0,0.0,0.0,0.0,0.0,0,1,1,1,1,0,0,0,0,0,0,0
991896745,0,0.0,0.0,0,-5.35333,1.05032,1.43642,0.0,0.0,0.0,-0.0171619,0.00640717,-0.00575098,0.0,0.0,0.0,0.0,0.0,0.0,0.11553,0.0,0.0,0.0,0.0,0.0,0,1,1,1,1,0,0,0,0,0,0,0
991901674,0,0.0,0.0,0,-5.35342,1.05035,1.43639,0.0,0.0,0.0,-0.0176021,0.00645526,-0.00601646,0.0,0.0,0.0,0.0,0.0,0.0,0.115535,0.0,0.0,0.0,0.0,0.0,0,1,1,1,1,0,0,0,0,0,0,0
991906709,0,0.0,0.0,0,-5.35351,1.05039,1.43636,0.0,0.0,0.0,-0.018089,0.00662102,-0.00631943,0.0,0.0,0.0,0.0,0.0,0.0,0.115547,0.0,0.0,0.0,0.0,0.0,0,1,1,1,1,0,0,0,0,0,0,0
991911653,0,0.0,0.0,0,-5.3536,1.05042,1.43633,0.0,0.0,0.0,-0.0186189,0.00671884,-0.00656045,0.0,0.0,0.0,0.0,0.0,0.0,0.115554,0.0,0.0,0.0,0.0,0.0,0,1,1,1,1,0,0,0,0,0,0,0
991916801,0,0.0,0.0,0,-5.3537,1.05045,1.4363,0.0,0.0,0.0,-0.0191329,0.0068601,-0.00672786,0.0,0.0,0.0,0.0,0.0,0.0,0.115553,0.0,0.0,0.0,0.0,0.0,0,1,1,1,1,0,0,0,0,0,0,0
991922118,0,0.0,0.0,0,-5.3538,1.05049,1.43626,0.0,0.0,0.0,-0.0196001,0.00693381,-0.00674062,0.0,0.0,0.0,0.0,0.0,0.0,0.11555,0.0,0.0,0.0,0.0,0.0,0,1,1,1,1,0,0,0,0,0,0,0
991926660,0,0.0,0.0,0,-5.3539,1.05052,1.43623,0.0,0.0,0.0,-0.0201558,0.00697532,-0.0068137,0.0,0.0,0.0,0.0,0.0,0.0,0.115549,0.0,0.0,0.0,0.0,0.0,0,1,1,1,1,0,0,0,0,0,0,0
991936789,0,0.0,0.0,0,-5.35321,1.05029,1.43628,0.0,0.0,0.0,-0.0122974,0.005104,-0.00477014,0.0,0.0,0.0,0.0,0.0,0.0,0.115517,0.0,0.0,0.0,0.0,0.0,0,1,1,1,1,0,0,0,0,0,0,0
991941712,0,0.0,0.0,0,-5.35327,1.05031,1.43626,0.0,0.0,0.0,-0.0127903,0.00530811,-0.0049417,0.0,0.0,0.0,0.0,0.0,0.0,0.115513,0.0,0.0,0.0,0.0,0.0,0,1,1,1,1,0,0,0,0,0,0,0
991947053,0,0.0,0.0,0,-5.35334,1.05034,1.43623,0.0,0.0,0.0,-0.0132933,0.00552699,-0.00512136,0.0,0.0,0.0,0.0,0.0,0.0,0.11552,0.0,0.0,0.0,0.0,0.0,0,1,1,1,1,0,0,0,0,0,0,0
991951729,0,0.0,0.0,0,-5.35341,1.05037,1.4362,0.0,0.0,0.0,-0.0138039,0.00564966,-0.00524709,0.0,0.0,0.0,0.0,0.0,0.0,0.115525,0.0,0.0,0.0,0.0,0.0,0,1,1,1,1,0,0,0,0,0,0,0
991956885,0,0.0,0.0,0,-5.35348,1.0504,1.43618,0.0,0.0,0.0,-0.0143463,0.00570489,-0.00535063,0.0,0.0,0.0,0.0,0.0,0.0,0.115518,0.0,0.0,0.0,0.0,0.0,0,1,1,1,1,0,0,0,0,0,0,0
991961824,0,0.0,0.0,0,-5.35356,1.05043,1.43615,0.0,0.0,0.0,-0.0149371,0.00588565,-0.00549963,0.0,0.0,0.0,0.0,0.0,0.0,0.115515,0.0,0.0,0.0,0.0,0.0,0,1,1,1,1,0,0,0,0,0,0,0
991967104,0,0.0,0.0,0,-5.35363,1.05046,1.43612,0.0,0.0,0.0,-0.0155571,0.00613377,-0.0057089,0.0,0.0,0.0,0.0,0.0,0.0,0.115511,0.0,0.0,0.0,0.0,0.0,0,1,1,1,1,0,0,0,0,0,0,0
991972177,0,0.0,0.0,0,-5.35371,1.05049,1.43609,0.0,0.0,0.0,-0.016122,0.00639318,-0.00588031,0.0,0.0,0.0,0.0,0.0,0.0,0.115505,0.0,0.0,0.0,0.0,0.0,0,1,1,1,1,0,0,0,0,0,0,0
991976783,0,0.0,0.0,0,-5.3538,1.05052,1.43606,0.0,0.0,0.0,-0.0166687,0.0065751,-0.00601065,0.0,0.0,0.0,0.0,0.0,0.0,0.115502,0.0,0.0,0.0,0.0,0.0,0,1,1,1,1,0,0,0,0,0,0,0
991981813,0,0.0,0.0,0,-5.35388,1.05056,1.43603,0.0,0.0,0.0,-0.0172732,0.00673734,-0.00616674,0.0,0.0,0.0,0.0,0.0,0.0,0.115498,0.0,0.0,0.0,0.0,0.0,0,1,1,1,1,0,0,0,0,0,0,0
991986791,0,0.0,0.0,0,-5.35397,1.05059,1.436,0.0,0.0,0.0,-0.0179841,0.00696881,-0.00644852,0.0,0.0,0.0,0.0,0.0,0.0,0.115502,0.0,0.0,0.0,0.0,0.0,0,1,1,1,1,0,0,0,0,0,0,0
991992015,0,0.0,0.0,0,-5.35407,1.05063,1.43596,0.0,0.0,0.0,-0.0186044,0.00719644,-0.00689428,0.0,0.0,0.0,0.0,0.0,0.0,0.115506,0.0,0.0,0.0,0.0,0.0,0,1,1,1,1,0,0,0,0,0,0,0
991996881,0,0.0,0.0,0,-5.35416,1.05066,1.43593,0.0,0.0,0.0,-0.0191123,0.00739935,-0.00725909,0.0,0.0,0.0,0.0,0.0,0.0,0.115503,0.0,0.0,0.0,0.0,0.0,0,1,1,1,1,0,0,0,0,0,0,0
992001748,0,0.0,0.0,0,-5.35426,1.0507,1.43589,0.0,0.0,0.0,-0.0196401,0.00754059,-0.00757448,0.0,0.0,0.0,0.0,0.0,0.0,0.115502,0.0,0.0,0.0,0.0,0.0,0,1,1,1,1,0,0,0,0,0,0,0
992012019,0,0.0,0.0,0,-5.35558,1.04751,1.43672,0.0,0.0,0.0,-0.0148619,-0.00110672,-0.00360487,0.0,0.0,0.0,0.0,0.0,0.0,0.115645,0.0,0.0,0.0,0.0,0.0,0,1,1,1,1,0,0,0,0,0,0,0
992016859,0,0.0,0.0,0,-5.35566,1.0475,1.4367,0.0,0.0,0.0,-0.0153354,-0.000969291,-0.00386534,0.0,0.0,0.0,0.0,0.0,0.0,0.115652,0.0,0.0,0.0,0.0,0.0,0,1,1,1,1,0,0,0,0,0,0,0
992022436,0,0.0,0.0,0,-5.35574,1.0475,1.43668,0.0,0.0,0.0,-0.0158888,-0.000850666,-0.00399696,0.0,0.0,0.0,0.0,0.0,0.0,0.115662,0.0,0.0,0.0,0.0,0.0,0,1,1,1,1,0,0,0,0,0,0,0
992026862,0,0.0,0.0,0,-5.35582,1.04749,1.43666,0.0,0.0,0.0,-0.0164972,-0.000709657,-0.00411605,0.0,0.0,0.0,0.0,0.0,0.0,0.115667,0.0,0.0,0.0,0.0,0.0,0,1,1,1,1,0,0,0,0,0,0,0
992031972,0,0.0,0.0,0,-5.35591,1.04749,1.43663,0.0,0.0,0.0,-0.0170716,-0.000552335,-0.00424819,0.0,0.0,0.0,0.0,0.0,0.0,0.115671,0.0,0.0,0.0,0.0,0.0,0,1,1,1,1,0,0,0,0,0,0,0
992036836,0,0.0,0.0,0,-5.356,1.04749,1.43661,0.0,0.0,0.0,-0.0176284,-0.000327693,-0.00451676,0.0,0.0,0.0,0.0,0.0,0.0,0.115673,0.0,0.0,0.0,0.0,0.0,0,1,1,1,1,0,0,0,0,0,0,0
992041828,0,0.0,0.0,0,-5.35609,1.04749,1.43659,0.0,0.0,0.0,-0.018084,-0.000115617,-0.0048032,0.0,0.0,0.0,0.0,0.0,0.0,0.115667,0.0,0.0,0.0,0.0,0.0,0,1,1,1,1,0,0,0,0,0,0,0
992046829,0,0.0,0.0,0,-5.35618,1.04749,1.43656,0.0,0.0,0.0,-0.0185801,4.10427e-05,-0.00500435,0.0,0.0,0.0,0.0,0.0,0.0,0.115666,0.0,0.0,0.0,0.0,0.0,0,1,1,1,1,0,0,0,0,0,0,0
992051876,0,0.0,0.0,0,-5.35627,1.04749,1.43654,0.0,0.0,0.0,-0.0190923,0.000200636,-0.00516181,0.0,0.0,0.0,0.0,0.0,0.0,0.115674,0.0,0.0,0.0,0.0,0.0,0,1,1,1,1,0,0,0,0,0,0,0
992056906,0,0.0,0.0,0,-5.35637,1.04749,1.43651,0.0,0.0,0.0,-0.0198131,0.000335893,-0.00527814,0.0,0.0,0.0,0.0,0.0,0.0,0.115673,0.0,0.0,0.0,0.0,0.0,0,1,1,1,1,0,0,0,0,0,0,0
992061870,0,0.0,0.0,0,-5.35648,1.04749,1.43648,0.0,0.0,0.0,-0.0205503,0.000444827,-0.00540127,0.0,0.0,0.0,0.0,0.0,0.0,0.115667,0.0,0.0,0.0,0.0,0.0,0,1,1,1,1,0,0,0,0,0,0,0
992066953,0,0.0,0.0,0,-5.35658,1.0475,1.43646,0.0,0.0,0.0,-0.0211046,0.00052257,-0.00559116,0.0,0.0,0.0,0.0,0.0,0.0,0.115666,0.0,0.0,0.0,0.0,0.0,0,1,1,1,1,0,0,0,0,0,0,0
992072247,0,0.0,0.0,0,-5.35669,1.0475,1.43643,0.0,0.0,0.0,-0.0217003,0.0005477,-0.00577083,0.0,0.0,0.0,0.0,0.0,0.0,0.115668,0.0,0.0,0.0,0.0,0.0,0,1,1,1,1,0,0,0,0,0,0,0
992076887,0,0.0,0.0,0,-5.3568,1.0475,1.4364,0.0,0.0,0.0,-0.0223395,0.00064124,-0.00586431,0.0,0.0,0.0,0.0,0.0,0.0,0.115667,0.0,0.0,0.0,0.0,0.0,0,1,1,1,1,0,0,0,0,0,0,0
992081851,0,0.0,0.0,0,-5.35692,1.04751,1.43637,0.0,0.0,0.0,-0.0229651,0.00071542,-0.00598924,0.0,0.0,0.0,0.0,0.0,0.0,0.115666,0.0,0.0,0.0,0.0,0.0,0,1,1,1,1,0,0,0,0,0,0,0
992086926,0,0.0,0.0,0,-5.35704,1.04751,1.43634,0.0,0.0,0.0,-0.0235759,0.000753021,-0.00622815,0.0,0.0,0.0,0.0,0.0,0.0,0.115665,0.0,0.0,0.0,0.0,0.0,0,1,1,1,1,0,0,0,0,0,0,0
992093286,0,0.0,0.0,0,-5.35716,1.04751,1.4363,0.0,0.0,0.0,-0.0241746,0.000847755,-0.00651235,0.0,0.0,0.0,0.0,0.0,0.0,0.115665,0.0,0.0,0.0,0.0,0.0,0,1,1,1,1,0,0,0,0,0,0,0
992096911,0,0.0,0.0,0,-5.35728,1.04752,1.43627,0.0,0.0,0.0,-0.024799,0.000933218,-0.00671659,0.0,0.0,0.0,0.0,0.0,0.0,0.115666,0.0,0.0,0.0,0.0,0.0,0,1,1,1,1,0,0,0,0,0,0,0
992102138,0,0.0,0.0,0,-5.35741,1.04752,1.43624,0.0,0.0,0.0,-0.0253945,0.00107682,-0.00697423,0.0,0.0,0.0,0.0,0.0,0.0,0.115668,0.0,0.0,0.0,0.0,0.0,0,1,1,1,1,0,0,0,0,0,0,0
992107275,0,0.0,0.0,0,-5.35754,1.04753,1.4362,0.0,0.0,0.0,-0.0259697,0.00118247,-0.00724335,0.0,0.0,0.0,0.0,0.0,0.0,0.115668,0.0,0.0,0.0,0.0,0.0,0,1,1,1,1,0,0,0,0,0,0,0
992115565,0,0.0,0.0,0,-5.35551,1.04743,1.43602,0.0,0.0,0.0,-0.0152268,-0.000360613,-0.00577693,0.0,0.0,0.0,0.0,0.0,0.0,0.115768,0.0,0.0,0.0,0.0,0.0,0,1,1,1,1,0,0,0,0,0,0,0
992116859,0,0.0,0.0,0,-5.35559,1.04743,1.43599,0.0,0.0,0.0,-0.0158116,-0.00033374,-0.00595014,0.0,0.0,0.0,0.0,0.0,0.0,0.115764,0.0,0.0,0.0,0.0,0.0,0,1,1,1,1,0,0,0,0,0,0,0
992122316,0,0.0,0.0,0,-5.35567,1.04743,1.43596,0.0,0.0,0.0,-0.0164345,-0.000217625,-0.00606936,0.0,0.0,0.0,0.0,0.0,0.0,0.115766,0.0,0.0,0.0,0.0,0.0,0,1,1,1,1,0,0,0,0,0,0,0
992126978,0,0.0,0.0,0,-5.35576,1.04743,1.43593,0.0,0.0,0.0,-0.0170503,-8.00404e-05,-0.00637495,0.0,0.0,0.0,0.0,0.0,0.0,0.115766,0.0,0.0,0.0,0.0,0.0,0,1,1,1,1,0,0,0,0,0,0,0
992131972,0,0.0,0.0,0,-5.35585,1.04743,1.4359,0.0,0.0,0.0,-0.0175584,2.12309e-05,-0.00673363,0.0,0.0,0.0,0.0,0.0,0.0,0.115763,0.0,0.0,0.0,0.0,0.0,0,1,1,1,1,0,0,0,0,0,0,0
992137118,0,0.0,0.0,0,-5.35594,1.04743,1.43586,0.0,0.0,0.0,-0.0181181,0.000112626,-0.00685375,0.0,0.0,0.0,0.0,0.0,0.0,0.115762,0.0,0.0,0.0,0.0,0.0,0,1,1,1,1,0,0,0,0,0,0,0
992142279,0,0.0,0.0,0,-5.35603,1.04743,1.43583,0.0,0.0,0.0,-0.0187214,9.2379e-05,-0.00707266,0.0,0.0,0.0,0.0,0.0,0.0,0.115764,0.0,0.0,0.0,0.0,0.0,0,1,1,1,1,0,0,0,0,0,0,0
992147098,0,0.0,0.0,0,-5.35613,1.04743,1.43579,0.0,0.0,0.0,-0.0193504,0.000175834,-0.00735685,0.0,0.0,0.0,0.0,0.0,0.0,0.115763,0.0,0.0,0.0,0.0,0.0,0,1,1,1,1,0,0,0,0,0,0,0
992151954,0,0.0,0.0,0,-5.35623,1.04743,1.43575,0.0,0.0,0.0,-0.019938,0.000216122,-0.00764093,0.0,0.0,0.0,0.0,0.0,0.0,0.115757,0.0,0.0,0.0,0.0,0.0,0,1,1,1,1,0,0,0,0,0,0,0
992157024,0,0.0,0.0,0,-5.35633,1.04743,1.43571,0.0,0.0,0.0,-0.0205361,0.000316361,-0.00787097,0.0,0.0,0.0,0.0,0.0,0.0,0.115754,0.0,0.0,0.0,0.0,0.0,0,1,1,1,1,0,0,0,0,0,0,0
992162223,0,0.0,0.0,0,-5.35644,1.04744,1.43567,0.0,0.0,0.0,-0.0210771,0.000443497,-0.0081188,0.0,0.0,0.0,0.0,0.0,0.0,0.115756,0.0,0.0,0.0,0.0,0.0,0,1,1,1,1,0,0,0,0,0,0,0
992167009,0,0.0,0.0,0,-5.35655,1.04744,1.43563,0.0,0.0,0.0,-0.0215808,0.000477972,-0.0082348,0.0,0.0,0.0,0.0,0.0,0.0,0.115758,0.0,0.0,0.0,0.0,0.0,0,1,1,1,1,0,0,0,0,0,0,0
992172371,0,0.0,0.0,0,-5.35666,1.04744,1.43559,0.0,0.0,0.0,-0.0221266,0.00054965,-0.00844172,0.0,0.0,0.0,0.0,0.0,0.0,0.11576,0.0,0.0,0.0,0.0,0.0,0,1,1,1,1,0,0,0,0,0,0,0
992177035,0,0.0,0.0,0,-5.35677,1.04744,1.43555,0.0,0.0,0.0,-0.0227254,0.000643587,-0.00880193,0.0,0.0,0.0,0.0,0.0,0.0,0.115762,0.0,0.0,0.0,0.0,0.0,0,1,1,1,1,0,0,0,0,0,0,0
992182082,0,0.0,0.0,0,-5.35689,1.04745,1.4355,0.0,0.0,0.0,-0.0233576,0.000822942,-0.00908832,0.0,0.0,0.0,0.0,0.0,0.0,0.115764,0.0,0.0,0.0,0.0,0.0,0,1,1,1,1,0,0,0,0,0,0,0
992187022,0,0.0,0.0,0,-5.35701,1.04745,1.43545,0.0,0.0,0.0,-0.0239246,0.000931355,-0.00933901,0.0,0.0,0.0,0.0,0.0,0.0,0.115763,0.0,0.0,0.0,0.0,0.0,0,1,1,1,1,0,0,0,0,0,0,0
992192098,0,0.0,0.0,0,-5.35713,1.04746,1.43541,0.0,0.0,0.0,-0.0244802,0.000913648,-0.00957889,0.0,0.0,0.0,0.0,0.0,0.0,0.115762,0.0,0.0,0.0,0.0,0.0,0,1,1,1,1,0,0,0,0,0,0,0
992197055,0,0.0,0.0,0,-5.35725,1.04746,1.43536,0.0,0.0,0.0,-0.0251121,0.000877613,-0.00968615,0.0,0.0,0.0,0.0,0.0,0.0,0.115769,0.0,0.0,0.0,0.0,0.0,0,1,1,1,1,0,0,0,0,0,0,0
992202110,0,0.0,0.0,0,-5.35738,1.04747,1.43531,0.0,0.0,0.0,-0.0257601,0.000840291,-0.00977326,0.0,0.0,0.0,0.0,0.0,0.0,0.115779,0.0,0.0,0.0,0.0,0.0,0,1,1,1,1,0,0,0,0,0,0,0
992207329,0,0.0,0.0,0,-5.35752,1.04747,1.43526,0.0,0.0,0.0,-0.0263852,0.000804997,-0.00989256,0.0,0.0,0.0,0.0,0.0,0.0,0.115781,0.0,0.0,0.0,0.0,0.0,0,1,1,1,1,0,0,0,0,0,0,0
992212133,0,0.0,0.0,0,-5.35765,1.04747,1.43521,0.0,0.0,0.0,-0.0269798,0.000835183,-0.010121,0.0,0.0,0.0,0.0,0.0,0.0,0.115783,0.0,0.0,0.0,0.0,0.0,0,1,1,1,1,0,0,0,0,0,0,0
992217277,0,0.0,0.0,0,-5.35779,1.04748,1.43516,0.0,0.0,0.0,-0.0275618,0.000894833,-0.0103583,0.0,0.0,0.0,0.0,0.0,0.0,0.115788,0.0,0.0,0.0,0.0,0.0,0,1,1,1,1,0,0,0,0,0,0,0
992222135,0,0.0,0.0,0,-5.35793,1.04748,1.4351,0.0,0.0,0.0,-0.0281858,0.00093759,-0.010598,0.0,0.0,0.0,0.0,0.0,0.0,0.115784,0.0,0.0,0.0,0.0,0.0,0,1,1,1,1,0,0,0,0,0,0,0
992232152,0,0.0,0.0,0,-5.35495,1.04854,1.43509,0.0,0.0,0.0,-0.0169239,0.00165702,-0.00911271,0.0,0.0,0.0,0.0,0.0,0.0,0.115655,0.0,0.0,0.0,0.0,0.0,0,1,1,1,1,0,0,0,0,0,0,0
992237258,0,0.0,0.0,0,-5.35504,1.04855,1.43505,0.0,0.0,0.0,-0.0174297,0.00158165,-0.00928109,0.0,0.0,0.0,0.0,0.0,0.0,0.115657,0.0,0.0,0.0,0.0,0.0,0,1,1,1,1,0,0,0,0,0,0,0
992242101,0,0.0,0.0,0,-5.35513,1.04856,1.435,0.0,0.0,0.0,-0.0179695,0.0016235,-0.0094121,0.0,0.0,0.0,0.0,0.0,0.0,0.115656,0.0,0.0,0.0,0.0,0.0,0,1,1,1,1,0,0,0,0,0,0,0
992247209,0,0.0,0.0,0,-5.35522,1.04857,1.43495,0.0,0.0,0.0,-0.0186066,0.00170595,-0.00953395,0.0,0.0,0.0,0.0,0.0,0.0,0.115655,0.0,0.0,0.0,0.0,0.0,0,1,1,1,1,0,0,0,0,0,0,0
992252138,0,0.0,0.0,0,-5.35532,1.04858,1.4349,0.0,0.0,0.0,-0.0191619,0.00179754,-0.00970543,0.0,0.0,0.0,0.0,0.0,0.0,0.11566,0.0,0.0,0.0,0.0,0.0,0,1,1,1,1,0,0,0,0,0,0,0
992257215,0,0.0,0.0,0,-5.35541,1.04859,1.43485,0.0,0.0,0.0,-0.0195761,0.00185027,-0.00987126,0.0,0.0,0.0,0.0,0.0,0.0,0.115667,0.0,0.0,0.0,0.0,0.0,0,1,1,1,1,0,0,0,0,0,0,0
992262180,0,0.0,0.0,0,-5.35551,1.0486,1.4348,0.0,0.0,0.0,-0.0200244,0.00194526,-0.0101202,0.0,0.0,0.0,0.0,0.0,0.0,0.115669,0.0,0.0,0.0,0.0,0.0,0,1,1,1,1,0,0,0,0,0,0,0
992267181,0,0.0,0.0,0,-5.35562,1.04861,1.43475,0.0,0.0,0.0,-0.0205101,0.00201597,-0.0103796,0.0,0.0,0.0,0.0,0.0,0.0,0.115663,0.0,0.0,0.0,0.0,0.0,0,1,1,1,1,0,0,0,0,0,0,0
992272619,0,0.0,0.0,0,-5.35572,1.04862,1.4347,0.0,0.0,0.0,-0.0209309,0.00212025,-0.0105782,0.0,0.0,0.0,0.0,0.0,0.0,0.115654,0.0,0.0,0.0,0.0,0.0,0,1,1,1,1,0,0,0,0,0,0,0
992277335,0,0.0,0.0,0,-5.35583,1.04863,1.43464,0.0,0.0,0.0,-0.0213581,0.00224904,-0.0107298,0.0,0.0,0.0,0.0,0.0,0.0,0.115645,0.0,0.0,0.0,0.0,0.0,0,1,1,1,1,0,0,0,0,0,0,0
992282285,0,0.0,0.0,0,-5.35594,1.04864,1.43459,0.0,0.0,0.0,-0.0218749,0.0023497,-0.0109615,0.0,0.0,0.0,0.0,0.0,0.0,0.115639,0.0,0.0,0.0,0.0,0.0,0,1,1,1,1,0,0,0,0,0,0,0
992287211,0,0.0,0.0,0,-5.35605,1.04865,1.43453,0.0,0.0,0.0,-0.0223844,0.00236408,-0.0111597,0.0,0.0,0.0,0.0,0.0,0.0,0.115632,0.0,0.0,0.0,0.0,0.0,0,1,1,1,1,0,0,0,0,0,0,0
992292361,0,0.0,0.0,0,-5.35616,1.04866,1.43448,0.0,0.0,0.0,-0.0228608,0.0023439,-0.0112866,0.0,0.0,0.0,0.0,0.0,0.0,0.115626,0.0,0.0,0.0,0.0,0.0,0,1,1,1,1,0,0,0,0,0,0,0
992297157,0,0.0,0.0,0,-5.35628,1.04868,1.43442,0.0,0.0,0.0,-0.0233204,0.0023865,-0.0113839,0.0,0.0,0.0,0.0,0.0,0.0,0.115623,0.0,0.0,0.0,0.0,0.0,0,1,1,1,1,0,0,0,0,0,0,0
992302228,0,0.0,0.0,0,-5.3564,1.04869,1.43436,0.0,0.0,0.0,-0.0238421,0.00249943,-0.0115921,0.0,0.0,0.0,0.0,0.0,0.0,0.115622,0.0,0.0,0.0,0.0,0.0,0,1,1,1,1,0,0,0,0,0,0,0
992307152,0,0.0,0.0,0,-5.35652,1.0487,1.4343,0.0,0.0,0.0,-0.0244288,0.00260676,-0.0118816,0.0,0.0,0.0,0.0,0.0,0.0,0.115624,0.0,0.0,0.0,0.0,0.0,0,1,1,1,1,0,0,0,0,0,0,0
992312394,0,0.0,0.0,0,-5.35665,1.04871,1.43424,0.0,0.0,0.0,-0.0250395,0.00281098,-0.012177,0.0,0.0,0.0,0.0,0.0,0.0,0.115621,0.0,0.0,0.0,0.0,0.0,0,1,1,1,1,0,0,0,0,0,0,0
992317216,0,0.0,0.0,0,-5.35678,1.04873,1.43418,0.0,0.0,0.0,-0.0255933,0.00295638,-0.0123537,0.0,0.0,0.0,0.0,0.0,0.0,0.11562,0.0,0.0,0.0,0.0,0.0,0,1,1,1,1,0,0,0,0,0,0,0
992322829,0,0.0,0.0,0,-5.35691,1.04874,1.43412,0.0,0.0,0.0,-0.0261838,0.00296372,-0.0126169,0.0,0.0,0.0,0.0,0.0,0.0,0.115627,0.0,0.0,0.0,0.0,0.0,0,1,1,1,1,0,0,0,0,0,0,0
992327523,0,0.0,0.0,0,-5.35704,1.04876,1.43405,0.0,0.0,0.0,-0.0267937,0.00302423,-0.0129165,0.0,0.0,0.0,0.0,0.0,0.0,0.115631,0.0,0.0,0.0,0.0,0.0,0,1,1,1,1,0,0,0,0,0,0,0
992332273,0,0.0,0.0,0,-5.35718,1.04878,1.43399,0.0,0.0,0.0,-0.0271603,0.00309469,-0.0131907,0.0,0.0,0.0,0.0,0.0,0.0,0.115628,0.0,0.0,0.0,0.0,0.0,0,1,1,1,1,0,0,0,0,0,0,0
992337356,0,0.0,0.0,0,-5.3541,1.04814,1.43481,0.0,0.0,0.0,-0.0155082,0.000258443,-0.00989516,0.0,0.0,0.0,0.0,0.0,0.0,0.11568,0.0,0.0,0.0,0.0,0.0,0,1,1,1,1,0,0,0,0,0,0,0
992342317,0,0.0,0.0,0,-5.35418,1.04814,1.43476,0.0,0.0,0.0,-0.0160954,0.000336946,-0.0101007,0.0,0.0,0.0,0.0,0.0,0.0,0.115674,0.0,0.0,0.0,0.0,0.0,0,1,1,1,1,0,0,0,0,0,0,0
992347322,0,0.0,0.0,0,-5.35427,1.04814,1.4347,0.0,0.0,0.0,-0.0166316,0.000389254,-0.0103188,0.0,0.0,0.0,0.0,0.0,0.0,0.115668,0.0,0.0,0.0,0.0,0.0,0,1,1,1,1,0,0,0,0,0,0,0
992352315,0,0.0,0.0,0,-5.35435,1.04815,1.43465,0.0,0.0,0.0,-0.0171861,0.000459533,-0.0105408,0.0,0.0,0.0,0.0,0.0,0.0,0.115664,0.0,0.0,0.0,0.0,0.0,0,1,1,1,1,0,0,0,0,0,0,0
992357321,0,0.0,0.0,0,-5.35444,1.04815,1.4346,0.0,0.0,0.0,-0.01775,0.000546263,-0.0106998,0.0,0.0,0.0,0.0,0.0,0.0,0.115663,0.0,0.0,0.0,0.0,0.0,0,1,1,1,1,0,0,0,0,0,0,0
992362260,0,0.0,0.0,0,-5.35453,1.04815,1.43454,0.0,0.0,0.0,-0.0183014,0.000594104,-0.0108818,0.0,0.0,0.0,0.0,0.0,0.0,0.115668,0.0,0.0,0.0,0.0,0.0,0,1,1,1,1,0,0,0,0,0,0,0
992367325,0,0.0,0.0,0,-5.35463,1.04816,1.43449,0.0,0.0,0.0,-0.0188287,0.000741056,-0.011055,0.0,0.0,0.0,0.0,0.0,0.0,0.115675,0.0,0.0,0.0,0.0,0.0,0,1,1,1,1,0,0,0,0,0,0,0
992372608,0,0.0,0.0,0,-5.35472,1.04816,1.43443,0.0,0.0,0.0,-0.0193562,0.000860869,-0.0111881,0.0,0.0,0.0,0.0,0.0,0.0,0.115677,0.0,0.0,0.0,0.0,0.0,0,1,1,1,1,0,0,0,0,0,0,0
992377605,0,0.0,0.0,0,-5.35482,1.04816,1.43438,0.0,0.0,0.0,-0.0199612,0.000927657,-0.011318,0.0,0.0,0.0,0.0,0.0,0.0,0.115676,0.0,0.0,0.0,0.0,0.0,0,1,1,1,1,0,0,0,0,0,0,0
992382643,0,0.0,0.0,0,-5.35493,1.04817,1.43432,0.0,0.0,0.0,-0.0205047,0.00103589,-0.011549,0.0,0.0,0.0,0.0,0.0,0.0,0.115681,0.0,0.0,0.0,0.0,0.0,0,1,1,1,1,0,0,0,0,0,0,0
992387327,0,0.0,0.0,0,-5.35503,1.04818,1.43426,0.0,0.0,0.0,-0.0210301,0.00108976,-0.0117911,0.0,0.0,0.0,0.0,0.0,0.0,0.115686,0.0,0.0,0.0,0.0,0.0,0,1,1,1,1,0,0,0,0,0,0,0
992392373,0,0.0,0.0,0,-5.35514,1.04818,1.4342,0.0,0.0,0.0,-0.0215864,0.00111409,-0.0119131,0.0,0.0,0.0,0.0,0.0,0.0,0.115688,0.0,0.0,0.0,0.0,0.0,0,1,1,1,1,0,0,0,0,0,0,0
992397324,0,0.0,0.0,0,-5.35525,1.04819,1.43414,0.0,0.0,0.0,-0.0221298,0.00118534,-0.0121591,0.0,0.0,0.0,0.0,0.0,0.0,0.115692,0.0,0.0,0.0,0.0,0.0,0,1,1,1,1,0,0,0,0,0,0,0
992402341,0,0.0,0.0,0,-5.35536,1.04819,1.43408,0.0,0.0,0.0,-0.0227048,0.00119332,-0.0123633,0.0,0.0,0.0,0.0,0.0,0.0,0.115694,0.0,0.0,0.0,0.0,0.0,0,1,1,1,1,0,0,0,0,0,0,0
992407449,0,0.0,0.0,0,-5.35548,1.0482,1.43401,0.0,0.0,0.0,-0.0232472,0.00126008,-0.0125974,0.0,0.0,0.0,0.0,0.0,0.0,0.115694,0.0,0.0,0.0,0.0,0.0,0,1,1,1,1,0,0,0,0,0,0,0
992412454,0,0.0,0.0,0,-5.3556,1.04821,1.43395,0.0,0.0,0.0,-0.023775,0.00142612,-0.0129332,0.0,0.0,0.0,0.0,0.0,0.0,0.115696,0.0,0.0,0.0,0.0,0.0,0,1,1,1,1,0,0,0,0,0,0,0
992417333,0,0.0,0.0,0,-5.35572,1.04821,1.43388,0.0,0.0,0.0,-0.0243579,0.00164878,-0.0132968,0.0,0.0,0.0,0.0,0.0,0.0,0.115693,0.0,0.0,0.0,0.0,0.0,0,1,1,1,1,0,0,0,0,0,0,0
992422409,0,0.0,0.0,0,-5.35585,1.04822,1.43381,0.0,0.0,0.0,-0.0248973,0.00176342,-0.0135124,0.0,0.0,0.0,0.0,0.0,0.0,0.115684,0.0,0.0,0.0,0.0,0.0,0,1,1,1,1,0,0,0,0,0,0,0
992427639,0,0.0,0.0,0,-5.35597,1.04823,1.43375,0.0,0.0,0.0,-0.025411,0.00183316,-0.0137274,0.0,0.0,0.0,0.0,0.0,0.0,0.115675,0.0,0.0,0.0,0.0,0.0,0,1,1,1,1,0,0,0,0,0,0,0
992432428,0,0.0,0.0,0,-5.35409,1.04781,1.43453,0.0,0.0,0.0,-0.0156178,-0.000319659,-0.0102403,0.0,0.0,0.0,0.0,0.0,0.0,0.115735,0.0,0.0,0.0,0.0,0.0,0,1,1,1,1,0,0,0,0,0,0,0
992437452,0,0.0,0.0,0,-5.35417,1.04781,1.43448,0.0,0.0,0.0,-0.0161787,-0.000197409,-0.0105532,0.0,0.0,0.0,0.0,0.0,0.0,0.115737,0.0,0.0,0.0,0.0,0.0,0,1,1,1,1,0,0,0,0,0,0,0
992442544,0,0.0,0.0,0,-5.35425,1.04781,1.43443,0.0,0.0,0.0,-0.0166388,-0.000105147,-0.0107729,0.0,0.0,0.0,0.0,0.0,0.0,0.115736,0.0,0.0,0.0,0.0,0.0,0,1,1,1,1,0,0,0,0,0,0,0
992447455,0,0.0,0.0,0,-5.35434,1.04781,1.43437,0.0,0.0,0.0,-0.0172725,3.06475e-06,-0.0109534,0.0,0.0,0.0,0.0,0.0,0.0,0.115733,0.0,0.0,0.0,0.0,0.0,0,1,1,1,1,0,0,0,0,0,0,0
992452394,0,0.0,0.0,0,-5.35443,1.04781,1.43432,0.0,0.0,0.0,-0.0179177,1.08397e-05,-0.0110837,0.0,0.0,0.0,0.0,0.0,0.0,0.115732,0.0,0.0,0.0,0.0,0.0,0,1,1,1,1,0,0,0,0,0,0,0
992457450,0,0.0,0.0,0,-5.35452,1.04781,1.43426,0.0,0.0,0.0,-0.0185004,-7.45125e-06,-0.0112819,0.0,0.0,0.0,0.0,0.0,0.0,0.115737,0.0,0.0,0.0,0.0,0.0,0,1,1,1,1,0,0,0,0,0,0,0
992462454,0,0.0,0.0,0,-5.35462,1.04781,1.4342,0.0,0.0,0.0,-0.0190666,5.75886e-05,-0.0115971,0.0,0.0,0.0,0.0,0.0,0.0,0.115741,0.0,0.0,0.0,0.0,0.0,0,1,1,1,1,0,0,0,0,0,0,0
992467508,0,0.0,0.0,0,-5.35472,1.04781,1.43414,0.0,0.0,0.0,-0.0196541,6.26915e-05,-0.0119735,0.0,0.0,0.0,0.0,0.0,0.0,0.115743,0.0,0.0,0.0,0.0,0.0,0,1,1,1,1,0,0,0,0,0,0,0
992472682,0,0.0,0.0,0,-5.35482,1.04781,1.43408,0.0,0.0,0.0,-0.0201395,3.44381e-05,-0.012237,0.0,0.0,0.0,0.0,0.0,0.0,0.115745,0.0,0.0,0.0,0.0,0.0,0,1,1,1,1,0,0,0,0,0,0,0
992477637,0,0.0,0.0,0,-5.35492,1.04781,1.43402,0.0,0.0,0.0,-0.0206254,-2.66067e-05,-0.0125313,0.0,0.0,0.0,0.0,0.0,0.0,0.115747,0.0,0.0,0.0,0.0,0.0,0,1,1,1,1,0,0,0,0,0,0,0
992482753,0,0.0,0.0,0,-5.35503,1.04781,1.43395,0.0,0.0,0.0,-0.0212543,-1.53503e-05,-0.0129583,0.0,0.0,0.0,0.0,0.0,0.0,0.115747,0.0,0.0,0.0,0.0,0.0,0,1,1,1,1,0,0,0,0,0,0,0
992487551,0,0.0,0.0,0,-5.35514,1.04781,1.43389,0.0,0.0,0.0,-0.0219133,0.000113467,-0.0133402,0.0,0.0,0.0,0.0,0.0,0.0,0.115746,0.0,0.0,0.0,0.0,0.0,0,1,1,1,1,0,0,0,0,0,0,0
992492525,0,0.0,0.0,0,-5.35525,1.04782,1.43382,0.0,0.0,0.0,-0.0224725,0.000284028,-0.0136386,0.0,0.0,0.0,0.0,0.0,0.0,0.115745,0.0,0.0,0.0,0.0,0.0,0,1,1,1,1,0,0,0,0,0,0,0
992497433,0,0.0,0.0,0,-5.35536,1.04782,1.43375,0.0,0.0,0.0,-0.0230553,0.000388051,-0.0139111,0.0,0.0,0.0,0.0,0.0,0.0,0.115745,0.0,0.0,0.0,0.0,0.0,0,1,1,1,1,0,0,0,0,0,0,0
992502665,0,0.0,0.0,0,-5.35548,1.04782,1.43368,0.0,0.0,0.0,-0.0235994,0.000419076,-0.014068,0.0,0.0,0.0,0.0,0.0,0.0,0.115752,0.0,0.0,0.0,0.0,0.0,0,1,1,1,1,0,0,0,0,0,0,0
992507425,0,0.0,0.0,0,-5.3556,1.04782,1.43361,0.0,0.0,0.0,-0.0241922,0.000447789,-0.0142671,0.0,0.0,0.0,0.0,0.0,0.0,0.115754,0.0,0.0,0.0,0.0,0.0,0,1,1,1,1,0,0,0,0,0,0,0
992512639,0,0.0,0.0,0,-5.35573,1.04782,1.43353,0.0,0.0,0.0,-0.024769,0.000410248,-0.0144729,0.0,0.0,0.0,0.0,0.0,0.0,0.115748,0.0,0.0,0.0,0.0,0.0,0,1,1,1,1,0,0,0,0,0,0,0
992517477,0,0.0,0.0,0,-5.35585,1.04783,1.43346,0.0,0.0,0.0,-0.0252819,0.000409113,-0.0146417,0.0,0.0,0.0,0.0,0.0,0.0,0.115744,0.0,0.0,0.0,0.0,0.0,0,1,1,1,1,0,0,0,0,0,0,0
992522637,0,0.0,0.0,0,-5.35598,1.04783,1.43339,0.0,0.0,0.0,-0.0258616,0.000391389,-0.014844,0.0,0.0,0.0,0.0,0.0,0.0,0.115744,0.0,0.0,0.0,0.0,0.0,0,1,1,1,1,0,0,0,0,0,0,0
992527491,0,0.0,0.0,0,-5.35612,1.04783,1.43331,0.0,0.0,0.0,-0.0264347,0.000473339,-0.0151239,0.0,0.0,0.0,0.0,0.0,0.0,0.115748,0.0,0.0,0.0,0.0,0.0,0,1,1,1,1,0,0,0,0,0,0,0
992537514,0,0.0,0.0,0,-5.35504,1.04823,1.43485,0.0,0.0,0.0,-0.0188294,0.000284519,-0.00998166,0.0,0.0,0.0,0.0,0.0,0.0,0.115585,0.0,0.0,0.0,0.0,0.0,0,1,1,1,1,0,0,0,0,0,0,0
992542717,0,0.0,0.0,0,-5.35514,1.04824,1.4348,0.0,0.0,0.0,-0.019442,0.000395639,-0.0102018,0.0,0.0,0.0,0.0,0.0,0.0,0.115582,0.0,0.0,0.0,0.0,0.0,0,1,1,1,1,0,0,0,0,0,0,0
992547461,0,0.0,0.0,0,-5.35524,1.04824,1.43475,0.0,0.0,0.0,-0.0200378,0.000432338,-0.0104324,0.0,0.0,0.0,0.0,0.0,0.0,0.115581,0.0,0.0,0.0,0.0,0.0,0,1,1,1,1,0,0,0,0,0,0,0
992553001,0,0.0,0.0,0,-5.35534,1.04824,1.4347,0.0,0.0,0.0,-0.0206289,0.000560702,-0.010701,0.0,0.0,0.0,0.0,0.0,0.0,0.115577,0.0,0.0,0.0,0.0,0.0,0,1,1,1,1,0,0,0,0,0,0,0
992557539,0,0.0,0.0,0,-5.35545,1.04824,1.43464,0.0,0.0,0.0,-0.0211745,0.000656327,-0.0108789,0.0,0.0,0.0,0.0,0.0,0.0,0.115574,0.0,0.0,0.0,0.0,0.0,0,1,1,1,1,0,0,0,0,0,0,0
992562545,0,0.0,0.0,0,-5.35556,1.04825,1.43459,0.0,0.0,0.0,-0.0217796,0.000681207,-0.011034,0.0,0.0,0.0,0.0,0.0,0.0,0.115576,0.0,0.0,0.0,0.0,0.0,0,1,1,1,1,0,0,0,0,0,0,0
992567503,0,0.0,0.0,0,-5.35567,1.04825,1.43453,0.0,0.0,0.0,-0.0223641,0.000849933,-0.0113156,0.0,0.0,0.0,0.0,0.0,0.0,0.115575,0.0,0.0,0.0,0.0,0.0,0,1,1,1,1,0,0,0,0,0,0,0
992572818,0,0.0,0.0,0,-5.35579,1.04826,1.43447,0.0,0.0,0.0,-0.0228989,0.00103685,-0.011591,0.0,0.0,0.0,0.0,0.0,0.0,0.115577,0.0,0.0,0.0,0.0,0.0,0,1,1,1,1,0,0,0,0,0,0,0
992577562,0,0.0,0.0,0,-5.3559,1.04826,1.43441,0.0,0.0,0.0,-0.0234952,0.00120891,-0.011829,0.0,0.0,0.0,0.0,0.0,0.0,0.115581,0.0,0.0,0.0,0.0,0.0,0,1,1,1,1,0,0,0,0,0,0,0
992582596,0,0.0,0.0,0,-5.35602,1.04827,1.43435,0.0,0.0,0.0,-0.0240461,0.00138847,-0.0119457,0.0,0.0,0.0,0.0,0.0,0.0,0.115581,0.0,0.0,0.0,0.0,0.0,0,1,1,1,1,0,0,0,0,0,0,0
992587577,0,0.0,0.0,0,-5.35615,1.04828,1.43429,0.0,0.0,0.0,-0.0245549,0.00157102,-0.0121702,0.0,0.0,0.0,0.0,0.0,0.0,0.11558,0.0,0.0,0.0,0.0,0.0,0,1,1,1,1,0,0,0,0,0,0,0
992592724,0,0.0,0.0,0,-5.35627,1.04829,1.43423,0.0,0.0,0.0,-0.0250183,0.00173368,-0.0124782,0.0,0.0,0.0,0.0,0.0,0.0,0.115581,0.0,0.0,0.0,0.0,0.0,0,1,1,1,1,0,0,0,0,0,0,0
992597796,0,0.0,0.0,0,-5.3564,1.0483,1.43417,0.0,0.0,0.0,-0.0254826,0.00181411,-0.0127091,0.0,0.0,0.0,0.0,0.0,0.0,0.115586,0.0,0.0,0.0,0.0,0.0,0,1,1,1,1,0,0,0,0,0,0,0
992602703,0,0.0,0.0,0,-5.35653,1.04831,1.4341,0.0,0.0,0.0,-0.0259592,0.00189209,-0.0129949,0.0,0.0,0.0,0.0,0.0,0.0,0.11559,0.0,0.0,0.0,0.0,0.0,0,1,1,1,1,0,0,0,0,0,0,0
992607731,0,0.0,0.0,0,-5.35666,1.04832,1.43404,0.0,0.0,0.0,-0.0265593,0.00189433,-0.0133233,0.0,0.0,0.0,0.0,0.0,0.0,0.115589,0.0,0.0,0.0,0.0,0.0,0,1,1,1,1,0,0,0,0,0,0,0
992612942,0,0.0,0.0,0,-5.35456,1.04787,1.43469,0.0,0.0,0.0,-0.0156648,-0.000552524,-0.00966743,0.0,0.0,0.0,0.0,0.0,0.0,0.115633,0.0,0.0,0.0,0.0,0.0,0,1,1,1,1,0,0,0,0,0,0,0
992617760,0,0.0,0.0,0,-5.35464,1.04787,1.43464,0.0,0.0,0.0,-0.016217,-0.000384778,-0.00970725,0.0,0.0,0.0,0.0,0.0,0.0,0.115629,0.0,0.0,0.0,0.0,0.0,0,1,1,1,1,0,0,0,0,0,0,0
992622718,0,0.0,0.0,0,-5.35472,1.04786,1.43459,0.0,0.0,0.0,-0.0167052,-0.000296695,-0.00990454,0.0,0.0,0.0,0.0,0.0,0.0,0.115631,0.0,0.0,0.0,0.0,0.0,0,1,1,1,1,0,0,0,0,0,0,0
992627637,0,0.0,0.0,0,-5.35481,1.04786,1.43454,0.0,0.0,0.0,-0.0172421,-0.000247849,-0.010163,0.0,0.0,0.0,0.0,0.0,0.0,0.11563,0.0,0.0,0.0,0.0,0.0,0,1,1,1,1,0,0,0,0,0,0,0
992632652,0,0.0,0.0,0,-5.3549,1.04786,1.43449,0.0,0.0,0.0,-0.0177611,-0.000179839,-0.0103789,0.0,0.0,0.0,0.0,0.0,0.0,0.115627,0.0,0.0,0.0,0.0,0.0,0,1,1,1,1,0,0,0,0,0,0,0
992637654,0,0.0,0.0,0,-5.35499,1.04786,1.43444,0.0,0.0,0.0,-0.0183076,-0.000145733,-0.0105419,0.0,0.0,0.0,0.0,0.0,0.0,0.115629,0.0,0.0,0.0,0.0,0.0,0,1,1,1,1,0,0,0,0,0,0,0
992642701,0,0.0,0.0,0,-5.35509,1.04786,1.43438,0.0,0.0,0.0,-0.0189115,-6.1135e-05,-0.0106416,0.0,0.0,0.0,0.0,0.0,0.0,0.115628,0.0,0.0,0.0,0.0,0.0,0,1,1,1,1,0,0,0,0,0,0,0
992647790,0,0.0,0.0,0,-5.35518,1.04786,1.43433,0.0,0.0,0.0,-0.0195061,0.000166839,-0.0108361,0.0,0.0,0.0,0.0,0.0,0.0,0.11563,0.0,0.0,0.0,0.0,0.0,0,1,1,1,1,0,0,0,0,0,0,0
992652752,0,0.0,0.0,0,-5.35528,1.04786,1.43428,0.0,0.0,0.0,-0.0200079,0.000395258,-0.0109774,0.0,0.0,0.0,0.0,0.0,0.0,0.115634,0.0,0.0,0.0,0.0,0.0,0,1,1,1,1,0,0,0,0,0,0,0
992657703,0,0.0,0.0,0,-5.35539,1.04787,1.43422,0.0,0.0,0.0,-0.0205263,0.000556105,-0.0111838,0.0,0.0,0.0,0.0,0.0,0.0,0.115633,0.0,0.0,0.0,0.0,0.0,0,1,1,1,1,0,0,0,0,0,0,0
992662653,0,0.0,0.0,0,-5.35549,1.04787,1.43416,0.0,0.0,0.0,-0.0211339,0.000721395,-0.0114236,0.0,0.0,0.0,0.0,0.0,0.0,0.115633,0.0,0.0,0.0,0.0,0.0,0,1,1,1,1,0,0,0,0,0,0,0
992667660,0,0.0,0.0,0,-5.3556,1.04787,1.4341,0.0,0.0,0.0,-0.021826,0.000876621,-0.0114835,0.0,0.0,0.0,0.0,0.0,0.0,0.115632,0.0,0.0,0.0,0.0,0.0,0,1,1,1,1,0,0,0,0,0,0,0
992672924,0,0.0,0.0,0,-5.35572,1.04788,1.43405,0.0,0.0,0.0,-0.0225447,0.000989109,-0.0115378,0.0,0.0,0.0,0.0,0.0,0.0,0.115628,0.0,0.0,0.0,0.0,0.0,0,1,1,1,1,0,0,0,0,0,0,0
992678161,0,0.0,0.0,0,-5.35583,1.04789,1.43399,0.0,0.0,0.0,-0.0231839,0.00111411,-0.0118431,0.0,0.0,0.0,0.0,0.0,0.0,0.115625,0.0,0.0,0.0,0.0,0.0,0,1,1,1,1,0,0,0,0,0,0,0
992682864,0,0.0,0.0,0,-5.35595,1.04789,1.43393,0.0,0.0,0.0,-0.0237149,0.00119853,-0.012225,0.0,0.0,0.0,0.0,0.0,0.0,0.115621,0.0,0.0,0.0,0.0,0.0,0,1,1,1,1,0,0,0,0,0,0,0
992687768,0,0.0,0.0,0,-5.35607,1.0479,1.43386,0.0,0.0,0.0,-0.0242934,0.00122831,-0.0124543,0.0,0.0,0.0,0.0,0.0,0.0,0.115618,0.0,0.0,0.0,0.0,0.0,0,1,1,1,1,0,0,0,0,0,0,0
992692766,0,0.0,0.0,0,-5.3562,1.0479,1.4338,0.0,0.0,0.0,-0.0248528,0.00129187,-0.0127206,0.0,0.0,0.0,0.0,0.0,0.0,0.11562,0.0,0.0,0.0,0.0,0.0,0,1,1,1,1,0,0,0,0,0,0,0
992697738,0,0.0,0.0,0,-5.35632,1.04791,1.43374,0.0,0.0,0.0,-0.025393,0.00143473,-0.0129457,0.0,0.0,0.0,0.0,0.0,0.0,0.115629,0.0,0.0,0.0,0.0,0.0,0,1,1,1,1,0,0,0,0,0,0,0
992702869,0,0.0,0.0,0,-5.35645,1.04792,1.43367,0.0,0.0,0.0,-0.0258889,0.00168474,-0.0130955,0.0,0.0,0.0,0.0,0.0,0.0,0.115639,0.0,0.0,0.0,0.0,0.0,0,1,1,1,1,0,0,0,0,0,0,0
992707749,0,0.0,0.0,0,-5.35659,1.04793,1.4336,0.0,0.0,0.0,-0.026393,0.00196165,-0.0132774,0.0,0.0,0.0,0.0,0.0,0.0,0.115641,0.0,0.0,0.0,0.0,0.0,0,1,1,1,1,0,0,0,0,0,0,0
992712828,0,0.0,0.0,0,-5.35672,1.04794,1.43354,0.0,0.0,0.0,-0.0268495,0.00217604,-0.0134747,0.0,0.0,0.0,0.0,0.0,0.0,0.115637,0.0,0.0,0.0,0.0,0.0,0,1,1,1,1,0,0,0,0,0,0,0
992717767,0,0.0,0.0,0,-5.35686,1.04795,1.43347,0.0,0.0,0.0,-0.027318,0.00243466,-0.0135859,0.0,0.0,0.0,0.0,0.0,0.0,0.115634,0.0,0.0,0.0,0.0,0.0,0,1,1,1,1,0,0,0,0,0,0,0
992723182,0,0.0,0.0,0,-5.357,1.04797,1.4334,0.0,0.0,0.0,-0.0278439,0.00265244,-0.0135762,0.0,0.0,0.0,0.0,0.0,0.0,0.115636,0.0,0.0,0.0,0.0,0.0,0,1,1,1,1,0,0,0,0,0,0,0
992727778,0,0.0,0.0,0,-5.35714,1.04798,1.43333,0.0,0.0,0.0,-0.0283333,0.00280962,-0.0137871,0.0,0.0,0.0,0.0,0.0,0.0,0.115646,0.0,0.0,0.0,0.0,0.0,0,1,1,1,1,0,0,0,0,0,0,0
992732843,0,0.0,0.0,0,-5.35728,1.04799,1.43326,0.0,0.0,0.0,-0.0288268,0.00289364,-0.0140356,0.0,0.0,0.0,0.0,0.0,0.0,0.115658,0.0,0.0,0.0,0.0,0.0,0,1,1,1,1,0,0,0,0,0,0,0
992737899,0,0.0,0.0,0,-5.35611,1.04746,1.43325,0.0,0.0,0.0,-0.0197326,0.000359513,-0.0120804,0.0,0.0,0.0,0.0,0.0,0.0,0.115629,0.0,0.0,0.0,0.0,0.0,0,1,1,1,1,0,0,0,0,0,0,0
992742858,0,0.0,0.0,0,-5.35621,1.04746,1.43319,0.0,0.0,0.0,-0.0202788,0.000557045,-0.0122341,0.0,0.0,0.0,0.0,0.0,0.0,0.115628,0.0,0.0,0.0,0.0,0.0,0,1,1,1,1,0,0,0,0,0,0,0
992747871,0,0.0,0.0,0,-5.35631,1.04747,1.43313,0.0,0.0,0.0,-0.020873,0.000748034,-0.0124261,0.0,0.0,0.0,0.0,0.0,0.0,0.11563,0.0,0.0,0.0,0.0,0.0,0,1,1,1,1,0,0,0,0,0,0,0
992752817,0,0.0,0.0,0,-5.35642,1.04747,1.43307,0.0,0.0,0.0,-0.021466,0.000936497,-0.0125587,0.0,0.0,0.0,0.0,0.0,0.0,0.115629,0.0,0.0,0.0,0.0,0.0,0,1,1,1,1,0,0,0,0,0,0,0
992757824,0,0.0,0.0,0,-5.35653,1.04748,1.433,0.0,0.0,0.0,-0.021938,0.00110977,-0.0127887,0.0,0.0,0.0,0.0,0.0,0.0,0.115628,0.0,0.0,0.0,0.0,0.0,0,1,1,1,1,0,0,0,0,0,0,0
992762787,0,0.0,0.0,0,-5.35664,1.04748,1.43294,0.0,0.0,0.0,-0.0224449,0.00134349,-0.0129956,0.0,0.0,0.0,0.0,0.0,0.0,0.115633,0.0,0.0,0.0,0.0,0.0,0,1,1,1,1,0,0,0,0,0,0,0
992767823,0,0.0,0.0,0,-5.35676,1.04749,1.43287,0.0,0.0,0.0,-0.0229593,0.00161842,-0.0130849,0.0,0.0,0.0,0.0,0.0,0.0,0.115632,0.0,0.0,0.0,0.0,0.0,0,1,1,1,1,0,0,0,0,0,0,0
992773211,0,0.0,0.0,0,-5.35688,1.0475,1.43281,0.0,0.0,0.0,-0.0234351,0.00179493,-0.013307,0.0,0.0,0.0,0.0,0.0,0.0,0.11562,0.0,0.0,0.0,0.0,0.0,0,1,1,1,1,0,0,0,0,0,0,0
992777857,0,0.0,0.0,0,-5.357,1.04751,1.43274,0.0,0.0,0.0,-0.0239579,0.00189692,-0.0135774,0.0,0.0,0.0,0.0,0.0,0.0,0.115611,0.0,0.0,0.0,0.0,0.0,0,1,1,1,1,0,0,0,0,0,0,0
992782804,0,0.0,0.0,0,-5.35712,1.04752,1.43267,0.0,0.0,0.0,-0.0244622,0.0020496,-0.0138533,0.0,0.0,0.0,0.0,0.0,0.0,0.115613,0.0,0.0,0.0,0.0,0.0,0,1,1,1,1,0,0,0,0,0,0,0
992787962,0,0.0,0.0,0,-5.35724,1.04753,1.4326,0.0,0.0,0.0,-0.0249689,0.0021372,-0.0139854,0.0,0.0,0.0,0.0,0.0,0.0,0.11562,0.0,0.0,0.0,0.0,0.0,0,1,1,1,1,0,0,0,0,0,0,0
992793015,0,0.0,0.0,0,-5.35737,1.04754,1.43253,0.0,0.0,0.0,-0.0255041,0.00214019,-0.0139765,0.0,0.0,0.0,0.0,0.0,0.0,0.115625,0.0,0.0,0.0,0.0,0.0,0,1,1,1,1,0,0,0,0,0,0,0
992797969,0,0.0,0.0,0,-5.3575,1.04755,1.43246,0.0,0.0,0.0,-0.0260751,0.00221998,-0.0141148,0.0,0.0,0.0,0.0,0.0,0.0,0.115629,0.0,0.0,0.0,0.0,0.0,0,1,1,1,1,0,0,0,0,0,0,0
992802976,0,0.0,0.0,0,-5.35764,1.04756,1.43239,0.0,0.0,0.0,-0.0266456,0.00232345,-0.0142696,0.0,0.0,0.0,0.0,0.0,0.0,0.115634,0.0,0.0,0.0,0.0,0.0,0,1,1,1,1,0,0,0,0,0,0,0
992807890,0,0.0,0.0,0,-5.35777,1.04758,1.43231,0.0,0.0,0.0,-0.0271873,0.00249129,-0.0143831,0.0,0.0,0.0,0.0,0.0,0.0,0.115636,0.0,0.0,0.0,0.0,0.0,0,1,1,1,1,0,0,0,0,0,0,0
992813019,0,0.0,0.0,0,-5.35512,1.04691,1.43265,0.0,0.0,0.0,-0.0153205,-0.000552227,-0.0116877,0.0,0.0,0.0,0.0,0.0,0.0,0.115632,0.0,0.0,0.0,0.0,0.0,0,1,1,1,1,0,0,0,0,0,0,0
992818266,0,0.0,0.0,0,-5.3552,1.0469,1.43259,0.0,0.0,0.0,-0.0157917,-0.000398696,-0.0119046,0.0,0.0,0.0,0.0,0.0,0.0,0.115631,0.0,0.0,0.0,0.0,0.0,0,1,1,1,1,0,0,0,0,0,0,0
992823016,0,0.0,0.0,0,-5.35528,1.0469,1.43253,0.0,0.0,0.0,-0.0163301,-0.000317709,-0.0121497,0.0,0.0,0.0,0.0,0.0,0.0,0.115632,0.0,0.0,0.0,0.0,0.0,0,1,1,1,1,0,0,0,0,0,0,0
992827970,0,0.0,0.0,0,-5.35536,1.0469,1.43247,0.0,0.0,0.0,-0.0168497,-0.000284411,-0.012319,0.0,0.0,0.0,0.0,0.0,0.0,0.115639,0.0,0.0,0.0,0.0,0.0,0,1,1,1,1,0,0,0,0,0,0,0
992832936,0,0.0,0.0,0,-5.35545,1.0469,1.4324,0.0,0.0,0.0,-0.0173471,-0.000241088,-0.0125404,0.0,0.0,0.0,0.0,0.0,0.0,0.115647,0.0,0.0,0.0,0.0,0.0,0,1,1,1,1,0,0,0,0,0,0,0
992838078,0,0.0,0.0,0,-5.35554,1.0469,1.43234,0.0,0.0,0.0,-0.0178917,-0.000171216,-0.0127653,0.0,0.0,0.0,0.0,0.0,0.0,0.115654,0.0,0.0,0.0,0.0,0.0,0,1,1,1,1,0,0,0,0,0,0,0
992842924,0,0.0,0.0,0,-5.35563,1.0469,1.43228,0.0,0.0,0.0,-0.0186036,-7.64215e-05,-0.0129475,0.0,0.0,0.0,0.0,0.0,0.0,0.115658,0.0,0.0,0.0,0.0,0.0,0,1,1,1,1,0,0,0,0,0,0,0
992848152,0,0.0,0.0,0,-5.35573,1.0469,1.43221,0.0,0.0,0.0,-0.0192304,-9.34537e-07,-0.0131864,0.0,0.0,0.0,0.0,0.0,0.0,0.11566,0.0,0.0,0.0,0.0,0.0,0,1,1,1,1,0,0,0,0,0,0,0
992852941,0,0.0,0.0,0,-5.35583,1.0469,1.43214,0.0,0.0,0.0,-0.0197521,6.3213e-05,-0.013404,0.0,0.0,0.0,0.0,0.0,0.0,0.115662,0.0,0.0,0.0,0.0,0.0,0,1,1,1,1,0,0,0,0,0,0,0
992857990,0,0.0,0.0,0,-5.35593,1.0469,1.43207,0.0,0.0,0.0,-0.0202989,0.000185409,-0.0137685,0.0,0.0,0.0,0.0,0.0,0.0,0.115661,0.0,0.0,0.0,0.0,0.0,0,1,1,1,1,0,0,0,0,0,0,0
992863041,0,0.0,0.0,0,-5.35603,1.0469,1.432,0.0,0.0,0.0,-0.020932,0.000334174,-0.0140841,0.0,0.0,0.0,0.0,0.0,0.0,0.115658,0.0,0.0,0.0,0.0,0.0,0,1,1,1,1,0,0,0,0,0,0,0
992868010,0,0.0,0.0,0,-5.35614,1.0469,1.43193,0.0,0.0,0.0,-0.0215682,0.00045219,-0.0143081,0.0,0.0,0.0,0.0,0.0,0.0,0.115657,0.0,0.0,0.0,0.0,0.0,0,1,1,1,1,0,0,0,0,0,0,0
992873234,0,0.0,0.0,0,-5.35625,1.04691,1.43186,0.0,0.0,0.0,-0.0221897,0.000589156,-0.0144737,0.0,0.0,0.0,0.0,0.0,0.0,0.115661,0.0,0.0,0.0,0.0,0.0,0,1,1,1,1,0,0,0,0,0,0,0
992878024,0,0.0,0.0,0,-5.35637,1.04691,1.43179,0.0,0.0,0.0,-0.0229127,0.000711633,-0.0145615,0.0,0.0,0.0,0.0,0.0,0.0,0.115666,0.0,0.0,0.0,0.0,0.0,0,1,1,1,1,0,0,0,0,0,0,0
992882946,0,0.0,0.0,0,-5.35649,1.04692,1.43171,0.0,0.0,0.0,-0.0235822,0.000861495,-0.0146039,0.0,0.0,0.0,0.0,0.0,0.0,0.115668,0.0,0.0,0.0,0.0,0.0,0,1,1,1,1,0,0,0,0,0,0,0
992887987,0,0.0,0.0,0,-5.35661,1.04692,1.43164,0.0,0.0,0.0,-0.0240849,0.00107184,-0.0148176,0.0,0.0,0.0,0.0,0.0,0.0,0.11567,0.0,0.0,0.0,0.0,0.0,0,1,1,1,1,0,0,0,0,0,0,0
992893055,0,0.0,0.0,0,-5.35673,1.04693,1.43156,0.0,0.0,0.0,-0.0245684,0.00131459,-0.0151156,0.0,0.0,0.0,0.0,0.0,0.0,0.115671,0.0,0.0,0.0,0.0,0.0,0,1,1,1,1,0,0,0,0,0,0,0
992898106,0,0.0,0.0,0,-5.35686,1.04693,1.43149,0.0,0.0,0.0,-0.0251643,0.00150464,-0.0153661,0.0,0.0,0.0,0.0,0.0,0.0,0.115671,0.0,0.0,0.0,0.0,0.0,0,1,1,1,1,0,0,0,0,0,0,0
992903249,0,0.0,0.0,0,-5.35698,1.04694,1.43141,0.0,0.0,0.0,-0.0257732,0.00161965,-0.0154958,0.0,0.0,0.0,0.0,0.0,0.0,0.115672,0.0,0.0,0.0,0.0,0.0,0,1,1,1,1,0,0,0,0,0,0,0
992908358,0,0.0,0.0,0,-5.35712,1.04695,1.43133,0.0,0.0,0.0,-0.026412,0.00172007,-0.0155732,0.0,0.0,0.0,0.0,0.0,0.0,0.11568,0.0,0.0,0.0,0.0,0.0,0,1,1,1,1,0,0,0,0,0,0,0
992913090,0,0.0,0.0,0,-5.35788,1.04571,1.4337,0.0,0.0,0.0,-0.0206502,-0.00227546,-0.00803729,0.0,0.0,0.0,0.0,0.0,0.0,0.115805,0.0,0.0,0.0,0.0,0.0,0,1,1,1,1,0,0,0,0,0,0,0
992918004,0,0.0,0.0,0,-5.35799,1.0457,1.43366,0.0,0.0,0.0,-0.0212314,-0.00211849,-0.00816858,0.0,0.0,0.0,0.0,0.0,0.0,0.115804,0.0,0.0,0.0,0.0,0.0,0,1,1,1,1,0,0,0,0,0,0,0
992923101,0,0.0,0.0,0,-5.3581,1.04569,1.43362,0.0,0.0,0.0,-0.0218281,-0.00193605,-0.0083278,0.0,0.0,0.0,0.0,0.0,0.0,0.115798,0.0,0.0,0.0,0.0,0.0,0,1,1,1,1,0,0,0,0,0,0,0
992928144,0,0.0,0.0,0,-5.35821,1.04568,1.43358,0.0,0.0,0.0,-0.0224255,-0.00188279,-0.00853114,0.0,0.0,0.0,0.0,0.0,0.0,0.115792,0.0,0.0,0.0,0.0,0.0,0,1,1,1,1,0,0,0,0,0,0,0
992933143,0,0.0,0.0,0,-5.35832,1.04567,1.43354,0.0,0.0,0.0,-0.022997,-0.00180543,-0.00867255,0.0,0.0,0.0,0.0,0.0,0.0,0.115789,0.0,0.0,0.0,0.0,0.0,0,1,1,1,1,0,0,0,0,0,0,0
992938314,0,0.0,0.0,0,-5.35844,1.04566,1.43349,0.0,0.0,0.0,-0.0235488,-0.00166333,-0.00886341,0.0,0.0,0.0,0.0,0.0,0.0,0.115785,0.0,0.0,0.0,0.0,0.0,0,1,1,1,1,0,0,0,0,0,0,0
992943057,0,0.0,0.0,0,-5.35856,1.04565,1.43345,0.0,0.0,0.0,-0.0240452,-0.00148818,-0.00911165,0.0,0.0,0.0,0.0,0.0,0.0,0.115782,0.0,0.0,0.0,0.0,0.0,0,1,1,1,1,0,0,0,0,0,0,0
992948138,0,0.0,0.0,0,-5.35868,1.04565,1.4334,0.0,0.0,0.0,-0.0246017,-0.00131706,-0.00939008,0.0,0.0,0.0,0.0,0.0,0.0,0.115779,0.0,0.0,0.0,0.0,0.0,0,1,1,1,1,0,0,0,0,0,0,0
992953023,0,0.0,0.0,0,-5.35881,1.04564,1.43335,0.0,0.0,0.0,-0.0252001,-0.00112631,-0.00962458,0.0,0.0,0.0,0.0,0.0,0.0,0.115778,0.0,0.0,0.0,0.0,0.0,0,1,1,1,1,0,0,0,0,0,0,0
992958242,0,0.0,0.0,0,-5.35894,1.04564,1.4333,0.0,0.0,0.0,-0.025863,-0.000861927,-0.00979624,0.0,0.0,0.0,0.0,0.0,0.0,0.115777,0.0,0.0,0.0,0.0,0.0,0,1,1,1,1,0,0,0,0,0,0,0
992963058,0,0.0,0.0,0,-5.35907,1.04563,1.43325,0.0,0.0,0.0,-0.0264529,-0.000641763,-0.0100198,0.0,0.0,0.0,0.0,0.0,0.0,0.115771,0.0,0.0,0.0,0.0,0.0,0,1,1,1,1,0,0,0,0,0,0,0
992968037,0,0.0,0.0,0,-5.35921,1.04563,1.4332,0.0,0.0,0.0,-0.0270656,-0.000490521,-0.0101661,0.0,0.0,0.0,0.0,0.0,0.0,0.115768,0.0,0.0,0.0,0.0,0.0,0,1,1,1,1,0,0,0,0,0,0,0
992973492,0,0.0,0.0,0,-5.35935,1.04563,1.43315,0.0,0.0,0.0,-0.0277637,-0.000392649,-0.0102972,0.0,0.0,0.0,0.0,0.0,0.0,0.115769,0.0,0.0,0.0,0.0,0.0,0,1,1,1,1,0,0,0,0,0,0,0
992978096,0,0.0,0.0,0,-5.35949,1.04563,1.4331,0.0,0.0,0.0,-0.0284524,-0.000343505,-0.0105259,0.0,0.0,0.0,0.0,0.0,0.0,0.115774,0.0,0.0,0.0,0.0,0.0,0,1,1,1,1,0,0,0,0,0,0,0
992983226,0,0.0,0.0,0,-5.35964,1.04562,1.43304,0.0,0.0,0.0,-0.0292027,-0.000245731,-0.0107544,0.0,0.0,0.0,0.0,0.0,0.0,0.115776,0.0,0.0,0.0,0.0,0.0,0,1,1,1,1,0,0,0,0,0,0,0
992988134,0,0.0,0.0,0,-5.35979,1.04562,1.43299,0.0,0.0,0.0,-0.0299002,-0.000158183,-0.0110194,0.0,0.0,0.0,0.0,0.0,0.0,0.115775,0.0,0.0,0.0,0.0,0.0,0,1,1,1,1,0,0,0,0,0,0,0
992993251,0,0.0,0.0,0,-5.35994,1.04562,1.43293,0.0,0.0,0.0,-0.0304798,-9.41559e-05,-0.0113736,0.0,0.0,0.0,0.0,0.0,0.0,0.115777,0.0,0.0,0.0,0.0,0.0,0,1,1,1,1,0,0,0,0,0,0,0
992998159,0,0.0,0.0,0,-5.36009,1.04562,1.43287,0.0,0.0,0.0,-0.0310049,-4.17518e-05,-0.0116497,0.0,0.0,0.0,0.0,0.0,0.0,0.115779,0.0,0.0,0.0,0.0,0.0,0,1,1,1,1,0,0,0,0,0,0,0
993003147,0,0.0,0.0,0,-5.36025,1.04562,1.43281,0.0,0.0,0.0,-0.0315555,0.000119824,-0.01192,0.0,0.0,0.0,0.0,0.0,0.0,0.115784,0.0,0.0,0.0,0.0,0.0,0,1,1,1,1,0,0,0,0,0,0,0
993018515,0,0.0,0.0,0,-5.3582,1.04622,1.43409,0.0,0.0,0.0,-0.0217731,0.000365105,-0.00710919,0.0,0.0,0.0,0.0,0.0,0.0,0.115774,0.0,0.0,0.0,0.0,0.0,0,1,1,1,1,0,0,0,0,0,0,0
993023154,0,0.0,0.0,0,-5.35832,1.04622,1.43406,0.0,0.0,0.0,-0.0223812,0.000518534,-0.00722322,0.0,0.0,0.0,0.0,0.0,0.0,0.115778,0.0,0.0,0.0,0.0,0.0,0,1,1,1,1,0,0,0,0,0,0,0
993028166,0,0.0,0.0,0,-5.35843,1.04623,1.43402,0.0,0.0,0.0,-0.0229257,0.000639986,-0.00733403,0.0,0.0,0.0,0.0,0.0,0.0,0.115786,0.0,0.0,0.0,0.0,0.0,0,1,1,1,1,0,0,0,0,0,0,0
993033129,0,0.0,0.0,0,-5.35855,1.04623,1.43398,0.0,0.0,0.0,-0.0235381,0.000743269,-0.00755341,0.0,0.0,0.0,0.0,0.0,0.0,0.115787,0.0,0.0,0.0,0.0,0.0,0,1,1,1,1,0,0,0,0,0,0,0
993038221,0,0.0,0.0,0,-5.35867,1.04624,1.43394,0.0,0.0,0.0,-0.0240968,0.000906827,-0.00768867,0.0,0.0,0.0,0.0,0.0,0.0,0.115787,0.0,0.0,0.0,0.0,0.0,0,1,1,1,1,0,0,0,0,0,0,0
993043130,0,0.0,0.0,0,-5.35879,1.04624,1.4339,0.0,0.0,0.0,-0.024615,0.00104047,-0.00776485,0.0,0.0,0.0,0.0,0.0,0.0,0.115786,0.0,0.0,0.0,0.0,0.0,0,1,1,1,1,0,0,0,0,0,0,0
993048171,0,0.0,0.0,0,-5.35892,1.04625,1.43386,0.0,0.0,0.0,-0.0251837,0.00109129,-0.00788515,0.0,0.0,0.0,0.0,0.0,0.0,0.115788,0.0,0.0,0.0,0.0,0.0,0,1,1,1,1,0,0,0,0,0,0,0
993053249,0,0.0,0.0,0,-5.35905,1.04625,1.43382,0.0,0.0,0.0,-0.0257849,0.00117911,-0.007978,0.0,0.0,0.0,0.0,0.0,0.0,0.115792,0.0,0.0,0.0,0.0,0.0,0,1,1,1,1,0,0,0,0,0,0,0
993058191,0,0.0,0.0,0,-5.35918,1.04626,1.43378,0.0,0.0,0.0,-0.0263618,0.00130779,-0.00797763,0.0,0.0,0.0,0.0,0.0,0.0,0.115797,0.0,0.0,0.0,0.0,0.0,0,1,1,1,1,0,0,0,0,0,0,0
993063312,0,0.0,0.0,0,-5.35931,1.04627,1.43374,0.0,0.0,0.0,-0.0268741,0.00136309,-0.00803218,0.0,0.0,0.0,0.0,0.0,0.0,0.115801,0.0,0.0,0.0,0.0,0.0,0,1,1,1,1,0,0,0,0,0,0,0
993068183,0,0.0,0.0,0,-5.35945,1.04627,1.4337,0.0,0.0,0.0,-0.0274342,0.00141197,-0.00812102,0.0,0.0,0.0,0.0,0.0,0.0,0.115806,0.0,0.0,0.0,0.0,0.0,0,1,1,1,1,0,0,0,0,0,0,0
993073951,0,0.0,0.0,0,-5.35959,1.04628,1.43366,0.0,0.0,0.0,-0.0280712,0.00149884,-0.00824458,0.0,0.0,0.0,0.0,0.0,0.0,0.115808,0.0,0.0,0.0,0.0,0.0,0,1,1,1,1,0,0,0,0,0,0,0
993078277,0,0.0,0.0,0,-5.35974,1.04629,1.43362,0.0,0.0,0.0,-0.0287128,0.00161491,-0.00848333,0.0,0.0,0.0,0.0,0.0,0.0,0.115807,0.0,0.0,0.0,0.0,0.0,0,1,1,1,1,0,0,0,0,0,0,0
993083270,0,0.0,0.0,0,-5.35988,1.0463,1.43358,0.0,0.0,0.0,-0.0293311,0.00167378,-0.00872512,0.0,0.0,0.0,0.0,0.0,0.0,0.115814,0.0,0.0,0.0,0.0,0.0,0,1,1,1,1,0,0,0,0,0,0,0
993088272,0,0.0,0.0,0,-5.36003,1.04631,1.43353,0.0,0.0,0.0,-0.029911,0.00180772,-0.00903291,0.0,0.0,0.0,0.0,0.0,0.0,0.115822,0.0,0.0,0.0,0.0,0.0,0,1,1,1,1,0,0,0,0,0,0,0
993093291,0,0.0,0.0,0,-5.36019,1.04632,1.43348,0.0,0.0,0.0,-0.0304657,0.00196441,-0.00933015,0.0,0.0,0.0,0.0,0.0,0.0,0.115824,0.0,0.0,0.0,0.0,0.0,0,1,1,1,1,0,0,0,0,0,0,0
993098349,0,0.0,0.0,0,-5.36034,1.04633,1.43344,0.0,0.0,0.0,-0.0309661,0.00211222,-0.00956513,0.0,0.0,0.0,0.0,0.0,0.0,0.115823,0.0,0.0,0.0,0.0,0.0,0,1,1,1,1,0,0,0,0,0,0,0
993103246,0,0.0,0.0,0,-5.3605,1.04634,1.43339,0.0,0.0,0.0,-0.0315244,0.00224506,-0.00979433,0.0,0.0,0.0,0.0,0.0,0.0,0.115822,0.0,0.0,0.0,0.0,0.0,0,1,1,1,1,0,0,0,0,0,0,0
993108254,0,0.0,0.0,0,-5.36066,1.04635,1.43334,0.0,0.0,0.0,-0.0322008,0.00236049,-0.0100046,0.0,0.0,0.0,0.0,0.0,0.0,0.115824,0.0,0.0,0.0,0.0,0.0,0,1,1,1,1,0,0,0,0,0,0,0
993113246,0,0.0,0.0,0,-5.36082,1.04636,1.43329,0.0,0.0,0.0,-0.0328648,0.00253774,-0.0102089,0.0,0.0,0.0,0.0,0.0,0.0,0.115826,0.0,0.0,0.0,0.0,0.0,0,1,1,1,1,0,0,0,0,0,0,0
993118317,0,0.0,0.0,0,-5.36099,1.04638,1.43323,0.0,0.0,0.0,-0.0334148,0.00279166,-0.0104612,0.0,0.0,0.0,0.0,0.0,0.0,0.115828,0.0,0.0,0.0,0.0,0.0,0,1,1,1,1,0,0,0,0,0,0,0
993123342,0,0.0,0.0,0,-5.35825,1.04581,1.4341,0.0,0.0,0.0,-0.0208735,-3.14284e-05,-0.00651433,0.0,0.0,0.0,0.0,0.0,0.0,0.115898,0.0,0.0,0.0,0.0,0.0,0,1,1,1,1,0,0,0,0,0,0,0
993128386,0,0.0,0.0,0,-5.35836,1.04581,1.43406,0.0,0.0,0.0,-0.0214088,0.000165985,-0.0067303,0.0,0.0,0.0,0.0,0.0,0.0,0.1159,0.0,0.0,0.0,0.0,0.0,0,1,1,1,1,0,0,0,0,0,0,0
993133340,0,0.0,0.0,0,-5.35847,1.04581,1.43403,0.0,0.0,0.0,-0.0219275,0.000246811,-0.00707814,0.0,0.0,0.0,0.0,0.0,0.0,0.115897,0.0,0.0,0.0,0.0,0.0,0,1,1,1,1,0,0,0,0,0,0,0
993138295,0,0.0,0.0,0,-5.35858,1.04581,1.43399,0.0,0.0,0.0,-0.0224699,0.000316352,-0.00723937,0.0,0.0,0.0,0.0,0.0,0.0,0.115891,0.0,0.0,0.0,0.0,0.0,0,1,1,1,1,0,0,0,0,0,0,0
993143337,0,0.0,0.0,0,-5.3587,1.04581,1.43396,0.0,0.0,0.0,-0.0229654,0.000389631,-0.00748464,0.0,0.0,0.0,0.0,0.0,0.0,0.11589,0.0,0.0,0.0,0.0,0.0,0,1,1,1,1,0,0,0,0,0,0,0
993148462,0,0.0,0.0,0,-5.35882,1.04581,1.43392,0.0,0.0,0.0,-0.0234807,0.000573655,-0.00787061,0.0,0.0,0.0,0.0,0.0,0.0,0.115895,0.0,0.0,0.0,0.0,0.0,0,1,1,1,1,0,0,0,0,0,0,0
993153367,0,0.0,0.0,0,-5.35894,1.04582,1.43388,0.0,0.0,0.0,-0.0240211,0.000685724,-0.00808825,0.0,0.0,0.0,0.0,0.0,0.0,0.115895,0.0,0.0,0.0,0.0,0.0,0,1,1,1,1,0,0,0,0,0,0,0
993158396,0,0.0,0.0,0,-5.35906,1.04582,1.43383,0.0,0.0,0.0,-0.0246368,0.000839238,-0.00819063,0.0,0.0,0.0,0.0,0.0,0.0,0.115888,0.0,0.0,0.0,0.0,0.0,0,1,1,1,1,0,0,0,0,0,0,0
993163323,0,0.0,0.0,0,-5.35919,1.04583,1.43379,0.0,0.0,0.0,-0.0252791,0.00104631,-0.00827795,0.0,0.0,0.0,0.0,0.0,0.0,0.115888,0.0,0.0,0.0,0.0,0.0,0,1,1,1,1,0,0,0,0,0,0,0
993168388,0,0.0,0.0,0,-5.35932,1.04583,1.43375,0.0,0.0,0.0,-0.0258685,0.00117475,-0.00842769,0.0,0.0,0.0,0.0,0.0,0.0,0.115887,0.0,0.0,0.0,0.0,0.0,0,1,1,1,1,0,0,0,0,0,0,0
993173643,0,0.0,0.0,0,-5.35945,1.04584,1.43371,0.0,0.0,0.0,-0.026419,0.00127577,-0.00859746,0.0,0.0,0.0,0.0,0.0,0.0,0.115886,0.0,0.0,0.0,0.0,0.0,0,1,1,1,1,0,0,0,0,0,0,0
993178720,0,0.0,0.0,0,-5.35958,1.04585,1.43366,0.0,0.0,0.0,-0.0268827,0.00142375,-0.0087427,0.0,0.0,0.0,0.0,0.0,0.0,0.115886,0.0,0.0,0.0,0.0,0.0,0,1,1,1,1,0,0,0,0,0,0,0
993183386,0,0.0,0.0,0,-5.35972,1.04586,1.43362,0.0,0.0,0.0,-0.0273997,0.00160827,-0.00894287,0.0,0.0,0.0,0.0,0.0,0.0,0.115882,0.0,0.0,0.0,0.0,0.0,0,1,1,1,1,0,0,0,0,0,0,0
993188548,0,0.0,0.0,0,-5.35986,1.04586,1.43357,0.0,0.0,0.0,-0.0281553,0.00177636,-0.00914505,0.0,0.0,0.0,0.0,0.0,0.0,0.115879,0.0,0.0,0.0,0.0,0.0,0,1,1,1,1,0,0,0,0,0,0,0
993193387,0,0.0,0.0,0,-5.36001,1.04587,1.43353,0.0,0.0,0.0,-0.0289685,0.0019031,-0.00927374,0.0,0.0,0.0,0.0,0.0,0.0,0.115878,0.0,0.0,0.0,0.0,0.0,0,1,1,1,1,0,0,0,0,0,0,0
993198385,0,0.0,0.0,0,-5.36016,1.04588,1.43348,0.0,0.0,0.0,-0.0296304,0.00207136,-0.00943858,0.0,0.0,0.0,0.0,0.0,0.0,0.11588,0.0,0.0,0.0,0.0,0.0,0,1,1,1,1,0,0,0,0,0,0,0
993203396,0,0.0,0.0,0,-5.36031,1.0459,1.43343,0.0,0.0,0.0,-0.0302239,0.00224977,-0.00950651,0.0,0.0,0.0,0.0,0.0,0.0,0.115879,0.0,0.0,0.0,0.0,0.0,0,1,1,1,1,0,0,0,0,0,0,0
993208525,0,0.0,0.0,0,-5.36046,1.04591,1.43339,0.0,0.0,0.0,-0.030825,0.00233711,-0.00948504,0.0,0.0,0.0,0.0,0.0,0.0,0.115879,0.0,0.0,0.0,0.0,0.0,0,1,1,1,1,0,0,0,0,0,0,0
993213507,0,0.0,0.0,0,-5.35847,1.04589,1.43412,0.0,0.0,0.0,-0.020216,0.000827773,-0.00574515,0.0,0.0,0.0,0.0,0.0,0.0,0.115858,0.0,0.0,0.0,0.0,0.0,0,1,1,1,1,0,0,0,0,0,0,0
993218526,0,0.0,0.0,0,-5.35858,1.04589,1.43409,0.0,0.0,0.0,-0.0206755,0.00103158,-0.00588242,0.0,0.0,0.0,0.0,0.0,0.0,0.11586,0.0,0.0,0.0,0.0,0.0,0,1,1,1,1,0,0,0,0,0,0,0
993223593,0,0.0,0.0,0,-5.35868,1.0459,1.43406,0.0,0.0,0.0,-0.021116,0.00126287,-0.00615902,0.0,0.0,0.0,0.0,0.0,0.0,0.11586,0.0,0.0,0.0,0.0,0.0,0,1,1,1,1,0,0,0,0,0,0,0
993228768,0,0.0,0.0,0,-5.35879,1.0459,1.43403,0.0,0.0,0.0,-0.0216416,0.00150478,-0.00639847,0.0,0.0,0.0,0.0,0.0,0.0,0.115856,0.0,0.0,0.0,0.0,0.0,0,1,1,1,1,0,0,0,0,0,0,0
993233466,0,0.0,0.0,0,-5.3589,1.04591,1.434,0.0,0.0,0.0,-0.0221849,0.00176528,-0.00658663,0.0,0.0,0.0,0.0,0.0,0.0,0.115856,0.0,0.0,0.0,0.0,0.0,0,1,1,1,1,0,0,0,0,0,0,0
993238461,0,0.0,0.0,0,-5.35901,1.04592,1.43396,0.0,0.0,0.0,-0.022696,0.00202061,-0.00680702,0.0,0.0,0.0,0.0,0.0,0.0,0.115861,0.0,0.0,0.0,0.0,0.0,0,1,1,1,1,0,0,0,0,0,0,0
993243538,0,0.0,0.0,0,-5.35913,1.04593,1.43393,0.0,0.0,0.0,-0.0233579,0.00223427,-0.00699127,0.0,0.0,0.0,0.0,0.0,0.0,0.115865,0.0,0.0,0.0,0.0,0.0,0,1,1,1,1,0,0,0,0,0,0,0
993248468,0,0.0,0.0,0,-5.35925,1.04595,1.43389,0.0,0.0,0.0,-0.024085,0.00253462,-0.00706164,0.0,0.0,0.0,0.0,0.0,0.0,0.115864,0.0,0.0,0.0,0.0,0.0,0,1,1,1,1,0,0,0,0,0,0,0
993253571,0,0.0,0.0,0,-5.35938,1.04596,1.43386,0.0,0.0,0.0,-0.0248562,0.00280182,-0.00713413,0.0,0.0,0.0,0.0,0.0,0.0,0.115864,0.0,0.0,0.0,0.0,0.0,0,1,1,1,1,0,0,0,0,0,0,0
993258839,0,0.0,0.0,0,-5.3595,1.04598,1.43382,0.0,0.0,0.0,-0.0256261,0.00276004,-0.00726598,0.0,0.0,0.0,0.0,0.0,0.0,0.115863,0.0,0.0,0.0,0.0,0.0,0,1,1,1,1,0,0,0,0,0,0,0
993263534,0,0.0,0.0,0,-5.35964,1.04599,1.43379,0.0,0.0,0.0,-0.0264653,0.00270983,-0.0072577,0.0,0.0,0.0,0.0,0.0,0.0,0.115857,0.0,0.0,0.0,0.0,0.0,0,1,1,1,1,0,0,0,0,0,0,0
993268573,0,0.0,0.0,0,-5.35977,1.046,1.43375,0.0,0.0,0.0,-0.027221,0.00265933,-0.00755948,0.0,0.0,0.0,0.0,0.0,0.0,0.115856,0.0,0.0,0.0,0.0,0.0,0,1,1,1,1,0,0,0,0,0,0,0
993273837,0,0.0,0.0,0,-5.35991,1.04602,1.43371,0.0,0.0,0.0,-0.0278878,0.00267437,-0.0081099,0.0,0.0,0.0,0.0,0.0,0.0,0.115858,0.0,0.0,0.0,0.0,0.0,0,1,1,1,1,0,0,0,0,0,0,0
993278587,0,0.0,0.0,0,-5.36006,1.04603,1.43367,0.0,0.0,0.0,-0.0284932,0.00320125,-0.00806236,0.0,0.0,0.0,0.0,0.0,0.0,0.115863,0.0,0.0,0.0,0.0,0.0,0,1,1,1,1,0,0,0,0,0,0,0
993283553,0,0.0,0.0,0,-5.3602,1.04605,1.43362,0.0,0.0,0.0,-0.0289105,0.00336193,-0.00841682,0.0,0.0,0.0,0.0,0.0,0.0,0.115875,0.0,0.0,0.0,0.0,0.0,0,1,1,1,1,0,0,0,0,0,0,0
993288814,0,0.0,0.0,0,-5.36035,1.04606,1.43358,0.0,0.0,0.0,-0.0294685,0.00318511,-0.00860937,0.0,0.0,0.0,0.0,0.0,0.0,0.115877,0.0,0.0,0.0,0.0,0.0,0,1,1,1,1,0,0,0,0,0,0,0
993293869,0,0.0,0.0,0,-5.3605,1.04608,1.43354,0.0,0.0,0.0,-0.030005,0.00355311,-0.00817609,0.0,0.0,0.0,0.0,0.0,0.0,0.115868,0.0,0.0,0.0,0.0,0.0,0,1,1,1,1,0,0,0,0,0,0,0
993298772,0,0.0,0.0,0,-5.36065,1.0461,1.4335,0.0,0.0,0.0,-0.0307088,0.00352431,-0.00896144,0.0,0.0,0.0,0.0,0.0,0.0,0.115862,0.0,0.0,0.0,0.0,0.0,0,1,1,1,1,0,0,0,0,0,0,0
993303540,0,0.0,0.0,0,-5.36081,1.04612,1.43345,0.0,0.0,0.0,-0.0316167,0.00376247,-0.00880075,0.0,0.0,0.0,0.0,0.0,0.0,0.115867,0.0,0.0,0.0,0.0,0.0,0,1,1,1,1,0,0,0,0,0,0,0
993308604,0,0.0,0.0,0,-5.36263,1.04243,1.43365,0.0,0.0,0.0,-0.0264839,-0.00584756,-0.00548668,0.0,0.0,0.0,0.0,0.0,0.0,0.116118,0.0,0.0,0.0,0.0,0.0,0,1,1,1,1,0,0,0,0,0,0,0
993313628,0,0.0,0.0,0,-5.36277,1.0424,1.43362,0.0,0.0,0.0,-0.0267639,-0.00627887,-0.00586815,0.0,0.0,0.0,0.0,0.0,0.0,0.116129,0.0,0.0,0.0,0.0,0.0,0,1,1,1,1,0,0,0,0,0,0,0
993318600,0,0.0,0.0,0,-5.36291,1.04237,1.43359,0.0,0.0,0.0,-0.0275842,-0.00600584,-0.00602984,0.0,0.0,0.0,0.0,0.0,0.0,0.11612,0.0,0.0,0.0,0.0,0.0,0,1,1,1,1,0,0,0,0,0,0,0
993323596,0,0.0,0.0,0,-5.36305,1.04234,1.43356,0.0,0.0,0.0,-0.0287046,-0.00546711,-0.00672069,0.0,0.0,0.0,0.0,0.0,0.0,0.116122,0.0,0.0,0.0,0.0,0.0,0,1,1,1,1,0,0,0,0,0,0,0
993328596,0,0.0,0.0,0,-5.3632,1.04232,1.43353,0.0,0.0,0.0,-0.0293671,-0.00537648,-0.00698014,0.0,0.0,0.0,0.0,0.0,0.0,0.116138,0.0,0.0,0.0,0.0,0.0,0,1,1,1,1,0,0,0,0,0,0,0
993333636,0,0.0,0.0,0,-5.36335,1.04229,1.43349,0.0,0.0,0.0,-0.0298092,-0.00559301,-0.00745023,0.0,0.0,0.0,0.0,0.0,0.0,0.116148,0.0,0.0,0.0,0.0,0.0,0,1,1,1,1,0,0,0,0,0,0,0
993338701,0,0.0,0.0,0,-5.3635,1.04226,1.43346,0.0,0.0,0.0,-0.0299942,-0.0050102,-0.00595956,0.0,0.0,0.0,0.0,0.0,0.0,0.11615,0.0,0.0,0.0,0.0,0.0,0,1,1,1,1,0,0,0,0,0,0,0
993343671,0,0.0,0.0,0,-5.36365,1.04224,1.43343,0.0,0.0,0.0,-0.0311789,-0.00431593,-0.00641216,0.0,0.0,0.0,0.0,0.0,0.0,0.116152,0.0,0.0,0.0,0.0,0.0,0,1,1,1,1,0,0,0,0,0,0,0
993348900,0,0.0,0.0,0,-5.36381,1.04222,1.43339,0.0,0.0,0.0,-0.0323193,-0.00456137,-0.00807821,0.0,0.0,0.0,0.0,0.0,0.0,0.116162,0.0,0.0,0.0,0.0,0.0,0,1,1,1,1,0,0,0,0,0,0,0
993353627,0,0.0,0.0,0,-5.36398,1.04219,1.43334,0.0,0.0,0.0,-0.0329529,-0.00518042,-0.00815041,0.0,0.0,0.0,0.0,0.0,0.0,0.116167,0.0,0.0,0.0,0.0,0.0,0,1,1,1,1,0,0,0,0,0,0,0
993358696,0,0.0,0.0,0,-5.36415,1.04217,1.4333,0.0,0.0,0.0,-0.0335177,-0.00505524,-0.00845642,0.0,0.0,0.0,0.0,0.0,0.0,0.116173,0.0,0.0,0.0,0.0,0.0,0,1,1,1,1,0,0,0,0,0,0,0
993363719,0,0.0,0.0,0,-5.36432,1.04214,1.43326,0.0,0.0,0.0,-0.0337196,-0.00474855,-0.00749547,0.0,0.0,0.0,0.0,0.0,0.0,0.116183,0.0,0.0,0.0,0.0,0.0,0,1,1,1,1,0,0,0,0,0,0,0
993368709,0,0.0,0.0,0,-5.36449,1.04212,1.43323,0.0,0.0,0.0,-0.0340416,-0.00455794,-0.00678557,0.0,0.0,0.0,0.0,0.0,0.0,0.116182,0.0,0.0,0.0,0.0,0.0,0,1,1,1,1,0,0,0,0,0,0,0
993373904,0,0.0,0.0,0,-5.36466,1.0421,1.43319,0.0,0.0,0.0,-0.0353929,-0.0039498,-0.00822019,0.0,0.0,0.0,0.0,0.0,0.0,0.11617,0.0,0.0,0.0,0.0,0.0,0,1,1,1,1,0,0,0,0,0,0,0
993378688,0,0.0,0.0,0,-5.36484,1.04208,1.43314,0.0,0.0,0.0,-0.0363048,-0.00360728,-0.00905729,0.0,0.0,0.0,0.0,0.0,0.0,0.116162,0.0,0.0,0.0,0.0,0.0,0,1,1,1,1,0,0,0,0,0,0,0
993383656,0,0.0,0.0,0,-5.36503,1.04207,1.4331,0.0,0.0,0.0,-0.0360164,-0.00329615,-0.00847109,0.0,0.0,0.0,0.0,0.0,0.0,0.116168,0.0,0.0,0.0,0.0,0.0,0,1,1,1,1,0,0,0,0,0,0,0
993388707,0,0.0,0.0,0,-5.36521,1.04205,1.43307,0.0,0.0,0.0,-0.0368776,-0.00378684,-0.0059973,0.0,0.0,0.0,0.0,0.0,0.0,0.116167,0.0,0.0,0.0,0.0,0.0,0,1,1,1,1,0,0,0,0,0,0,0
993393819,0,0.0,0.0,0,-5.3654,1.04203,1.43303,0.0,0.0,0.0,-0.0378328,-0.00385381,-0.00749828,0.0,0.0,0.0,0.0,0.0,0.0,0.116153,0.0,0.0,0.0,0.0,0.0,0,1,1,1,1,0,0,0,0,0,0,0
993398644,0,0.0,0.0,0,-5.36559,1.04201,1.43299,0.0,0.0,0.0,-0.0379229,-0.00382203,-0.00951545,0.0,0.0,0.0,0.0,0.0,0.0,0.116145,0.0,0.0,0.0,0.0,0.0,0,1,1,1,1,0,0,0,0,0,0,0
993403735,0,0.0,0.0,0,-5.36578,1.04199,1.43295,0.0,0.0,0.0,-0.0379239,-0.00373859,-0.00777522,0.0,0.0,0.0,0.0,0.0,0.0,0.116147,0.0,0.0,0.0,0.0,0.0,0,1,1,1,1,0,0,0,0,0,0,0
993408783,0,0.0,0.0,0,-5.36384,1.04252,1.43376,0.0,0.0,0.0,-0.0274418,-0.00356957,-0.00246826,0.0,0.0,0.0,0.0,0.0,0.0,0.116232,0.0,0.0,0.0,0.0,0.0,0,1,1,1,1,0,0,0,0,0,0,0
993414050,0,0.0,0.0,0,-5.36399,1.04251,1.43374,0.0,0.0,0.0,-0.0285862,-0.0032518,-0.00446417,0.0,0.0,0.0,0.0,0.0,0.0,0.116234,0.0,0.0,0.0,0.0,0.0,0,1,1,1,1,0,0,0,0,0,0,0
993418693,0,0.0,0.0,0,-5.36413,1.04249,1.43371,0.0,0.0,0.0,-0.0288637,-0.00393634,-0.0063795,0.0,0.0,0.0,0.0,0.0,0.0,0.116237,0.0,0.0,0.0,0.0,0.0,0,1,1,1,1,0,0,0,0,0,0,0
993423797,0,0.0,0.0,0,-5.36427,1.04247,1.43369,0.0,0.0,0.0,-0.0290119,-0.00325482,-0.00292054,0.0,0.0,0.0,0.0,0.0,0.0,0.116234,0.0,0.0,0.0,0.0,0.0,0,1,1,1,1,0,0,0,0,0,0,0
993428777,0,0.0,0.0,0,-5.36443,1.04245,1.43367,0.0,0.0,0.0,-0.0309556,-0.00391466,-0.00426767,0.0,0.0,0.0,0.0,0.0,0.0,0.116212,0.0,0.0,0.0,0.0,0.0,0,1,1,1,1,0,0,0,0,0,0,0
993433729,0,0.0,0.0,0,-5.36459,1.04243,1.43362,0.0,0.0,0.0,-0.032572,-0.00502896,-0.0108569,0.0,0.0,0.0,0.0,0.0,0.0,0.116165,0.0,0.0,0.0,0.0,0.0,0,1,1,1,1,0,0,0,0,0,0,0
993438746,0,0.0,0.0,0,-5.36475,1.04241,1.43359,0.0,0.0,0.0,-0.0321129,-0.00328096,-0.00532429,0.0,0.0,0.0,0.0,0.0,0.0,0.11613,0.0,0.0,0.0,0.0,0.0,0,1,1,1,1,0,0,0,0,0,0,0
993443908,0,0.0,0.0,0,-5.36491,1.0424,1.43357,0.0,0.0,0.0,-0.0319522,-0.00169995,-0.00479364,0.0,0.0,0.0,0.0,0.0,0.0,0.116167,0.0,0.0,0.0,0.0,0.0,0,1,1,1,1,0,0,0,0,0,0,0
993448928,0,0.0,0.0,0,-5.36507,1.0424,1.43356,0.0,0.0,0.0,-0.0316741,-0.000629231,-0.0021316,0.0,0.0,0.0,0.0,0.0,0.0,0.116214,0.0,0.0,0.0,0.0,0.0,0,1,1,1,1,0,0,0,0,0,0,0
993453933,0,0.0,0.0,0,-5.36524,1.04239,1.43354,0.0,0.0,0.0,-0.0333131,-0.000974229,-0.00279497,0.0,0.0,0.0,0.0,0.0,0.0,0.116218,0.0,0.0,0.0,0.0,0.0,0,1,1,1,1,0,0,0,0,0,0,0
993458766,0,0.0,0.0,0,-5.36541,1.0424,1.43352,0.0,0.0,0.0,-0.0336209,0.00156051,-0.00377024,0.0,0.0,0.0,0.0,0.0,0.0,0.116254,0.0,0.0,0.0,0.0,0.0,0,1,1,1,1,0,0,0,0,0,0,0
993463804,0,0.0,0.0,0,-5.36558,1.04239,1.43348,0.0,0.0,0.0,-0.0349317,-0.00132901,-0.0077316,0.0,0.0,0.0,0.0,0.0,0.0,0.1163,0.0,0.0,0.0,0.0,0.0,0,1,1,1,1,0,0,0,0,0,0,0
993468821,0,0.0,0.0,0,-5.36576,1.0424,1.43346,0.0,0.0,0.0,-0.0345253,0.00103621,-0.00394827,0.0,0.0,0.0,0.0,0.0,0.0,0.116323,0.0,0.0,0.0,0.0,0.0,0,1,1,1,1,0,0,0,0,0,0,0
993474671,0,0.0,0.0,0,-5.36594,1.04238,1.43344,0.0,0.0,0.0,-0.0371597,-0.00351748,-0.00417662,0.0,0.0,0.0,0.0,0.0,0.0,0.116258,0.0,0.0,0.0,0.0,0.0,0,1,1,1,1,0,0,0,0,0,0,0
993478926,0,0.0,0.0,0,-5.36613,1.04238,1.43344,0.0,0.0,0.0,-0.0369822,4.89489e-05,-0.000876516,0.0,0.0,0.0,0.0,0.0,0.0,0.116229,0.0,0.0,0.0,0.0,0.0,0,1,1,1,1,0,0,0,0,0,0,0
993483789,0,0.0,0.0,0,-5.36631,1.04237,1.43341,0.0,0.0,0.0,-0.035793,-0.00205005,-0.00545871,0.0,0.0,0.0,0.0,0.0,0.0,0.116249,0.0,0.0,0.0,0.0,0.0,0,1,1,1,1,0,0,0,0,0,0,0
993488894,0,0.0,0.0,0,-5.36649,1.04238,1.43338,0.0,0.0,0.0,-0.0372971,0.0014352,-0.00712697,0.0,0.0,0.0,0.0,0.0,0.0,0.116257,0.0,0.0,0.0,0.0,0.0,0,1,1,1,1,0,0,0,0,0,0,0
993494361,0,0.0,0.0,0,-5.36668,1.04237,1.43336,0.0,0.0,0.0,-0.0372487,-0.0022797,-0.00405578,0.0,0.0,0.0,0.0,0.0,0.0,0.116196,0.0,0.0,0.0,0.0,0.0,0,1,1,1,1,0,0,0,0,0,0,0
993498799,0,0.0,0.0,0,-5.36687,1.04238,1.43334,0.0,0.0,0.0,-0.0386314,0.00339849,-0.00275632,0.0,0.0,0.0,0.0,0.0,0.0,0.116218,0.0,0.0,0.0,0.0,0.0,0,1,1,1,1,0,0,0,0,0,0,0
993503943,0,0.0,0.0,0,-5.36707,1.04238,1.43333,0.0,0.0,0.0,-0.0388167,-0.000552304,-0.00223841,0.0,0.0,0.0,0.0,0.0,0.0,0.116288,0.0,0.0,0.0,0.0,0.0,0,1,1,1,1,0,0,0,0,0,0,0
993508864,0,0.0,0.0,0,-5.36429,1.04229,1.4338,0.0,0.0,0.0,-0.0278033,-0.000266215,0.00238907,0.0,0.0,0.0,0.0,0.0,0.0,0.116236,0.0,0.0,0.0,0.0,0.0,0,1,1,1,1,0,0,0,0,0,0,0
993513771,0,0.0,0.0,0,-5.36443,1.04228,1.43381,0.0,0.0,0.0,-0.027027,-0.00154768,0.00108278,0.0,0.0,0.0,0.0,0.0,0.0,0.116259,0.0,0.0,0.0,0.0,0.0,0,1,1,1,1,0,0,0,0,0,0,0
993518774,0,0.0,0.0,0,-5.36457,1.04229,1.4338,0.0,0.0,0.0,-0.0283399,0.000935122,-0.00148464,0.0,0.0,0.0,0.0,0.0,0.0,0.116296,0.0,0.0,0.0,0.0,0.0,0,1,1,1,1,0,0,0,0,0,0,0
993523811,0,0.0,0.0,0,-5.36472,1.04229,1.43378,0.0,0.0,0.0,-0.030242,-0.000632486,-0.00430594,0.0,0.0,0.0,0.0,0.0,0.0,0.116253,0.0,0.0,0.0,0.0,0.0,0,1,1,1,1,0,0,0,0,0,0,0
993529015,0,0.0,0.0,0,-5.36487,1.04229,1.4338,0.0,0.0,0.0,-0.0310748,-5.23668e-06,0.00475006,0.0,0.0,0.0,0.0,0.0,0.0,0.116182,0.0,0.0,0.0,0.0,0.0,0,1,1,1,1,0,0,0,0,0,0,0
993534012,0,0.0,0.0,0,-5.36502,1.04228,1.43385,0.0,0.0,0.0,-0.0290662,-0.00191924,0.00943195,0.0,0.0,0.0,0.0,0.0,0.0,0.116153,0.0,0.0,0.0,0.0,0.0,0,1,1,1,1,0,0,0,0,0,0,0
993538955,0,0.0,0.0,0,-5.36518,1.04228,1.43385,0.0,0.0,0.0,-0.0326718,0.00124568,0.000360052,0.0,0.0,0.0,0.0,0.0,0.0,0.116144,0.0,0.0,0.0,0.0,0.0,0,1,1,1,1,0,0,0,0,0,0,0
993544029,0,0.0,0.0,0,-5.36535,1.04228,1.43382,0.0,0.0,0.0,-0.0326376,0.000646521,-0.00571475,0.0,0.0,0.0,0.0,0.0,0.0,0.116152,0.0,0.0,0.0,0.0,0.0,0,1,1,1,1,0,0,0,0,0,0,0
993549160,0,0.0,0.0,0,-5.36551,1.04229,1.43384,0.0,0.0,0.0,-0.0318885,0.000708236,0.00437772,0.0,0.0,0.0,0.0,0.0,0.0,0.116169,0.0,0.0,0.0,0.0,0.0,0,1,1,1,1,0,0,0,0,0,0,0
993554051,0,0.0,0.0,0,-5.36566,1.0423,1.43391,0.0,0.0,0.0,-0.0308069,0.00249189,0.0129332,0.0,0.0,0.0,0.0,0.0,0.0,0.11621,0.0,0.0,0.0,0.0,0.0,0,1,1,1,1,0,0,0,0,0,0,0
993559093,0,0.0,0.0,0,-5.36584,1.0423,1.43393,0.0,0.0,0.0,-0.0357508,-0.000893257,0.00456243,0.0,0.0,0.0,0.0,0.0,0.0,0.116179,0.0,0.0,0.0,0.0,0.0,0,1,1,1,1,0,0,0,0,0,0,0
993564049,0,0.0,0.0,0,-5.36602,1.04231,1.43392,0.0,0.0,0.0,-0.0360169,0.00276524,-0.0013258,0.0,0.0,0.0,0.0,0.0,0.0,0.116213,0.0,0.0,0.0,0.0,0.0,0,1,1,1,1,0,0,0,0,0,0,0
993569091,0,0.0,0.0,0,-5.36619,1.0423,1.43395,0.0,0.0,0.0,-0.0335657,-0.00143503,0.00527327,0.0,0.0,0.0,0.0,0.0,0.0,0.116201,0.0,0.0,0.0,0.0,0.0,0,1,1,1,1,0,0,0,0,0,0,0
993575094,0,0.0,0.0,0,-5.36637,1.04232,1.43396,0.0,0.0,0.0,-0.0360511,0.0040045,0.00155273,0.0,0.0,0.0,0.0,0.0,0.0,0.116195,0.0,0.0,0.0,0.0,0.0,0,1,1,1,1,0,0,0,0,0,0,0
993578919,0,0.0,0.0,0,-5.36656,1.04234,1.43397,0.0,0.0,0.0,-0.0374429,0.00333998,0.00283807,0.0,0.0,0.0,0.0,0.0,0.0,0.116248,0.0,0.0,0.0,0.0,0.0,0,1,1,1,1,0,0,0,0,0,0,0
993584106,0,0.0,0.0,0,-5.36673,1.04237,1.43402,0.0,0.0,0.0,-0.0356846,0.00625643,0.00877446,0.0,0.0,0.0,0.0,0.0,0.0,0.116305,0.0,0.0,0.0,0.0,0.0,0,1,1,1,1,0,0,0,0,0,0,0
993593948,0,0.0,0.0,0,-5.36712,1.0424,1.43403,0.0,0.0,0.0,-0.0403005,0.00352701,-0.0035601,0.0,0.0,0.0,0.0,0.0,0.0,0.116366,0.0,0.0,0.0,0.0,0.0,0,1,1,1,1,0,0,0,0,0,0,0
993598992,0,0.0,0.0,0,-5.36732,1.04242,1.43405,0.0,0.0,0.0,-0.0397552,0.00259735,0.00356787,0.0,0.0,0.0,0.0,0.0,0.0,0.116381,0.0,0.0,0.0,0.0,0.0,0,1,1,1,1,0,0,0,0,0,0,0
993603951,0,0.0,0.0,0,-5.36751,1.04243,1.43413,0.0,0.0,0.0,-0.0382854,0.00329532,0.0164515,0.0,0.0,0.0,0.0,0.0,0.0,0.116393,0.0,0.0,0.0,0.0,0.0,0,1,1,1,1,0,0,0,0,0,0,0
993608970,0,0.0,0.0,0,-5.36573,1.04348,1.43434,0.0,0.0,0.0,-0.026659,0.00401064,0.0149131,0.0,0.0,0.0,0.0,0.0,0.0,0.116371,0.0,0.0,0.0,0.0,0.0,0,1,1,1,1,0,0,0,0,0,0,0
993613983,0,0.0,0.0,0,-5.36588,1.0435,1.43438,0.0,0.0,0.0,-0.03057,0.00283346,0.00796982,0.0,0.0,0.0,0.0,0.0,0.0,0.116336,0.0,0.0,0.0,0.0,0.0,0,1,1,1,1,0,0,0,0,0,0,0
993618992,0,0.0,0.0,0,-5.36603,1.04351,1.43442,0.0,0.0,0.0,-0.0300626,0.00353348,0.00853228,0.0,0.0,0.0,0.0,0.0,0.0,0.116295,0.0,0.0,0.0,0.0,0.0,0,1,1,1,1,0,0,0,0,0,0,0
993623979,0,0.0,0.0,0,-5.36618,1.04354,1.43449,0.0,0.0,0.0,-0.0304828,0.00476946,0.0132702,0.0,0.0,0.0,0.0,0.0,0.0,0.116289,0.0,0.0,0.0,0.0,0.0,0,1,1,1,1,0,0,0,0,0,0,0
993629113,0,0.0,0.0,0,-5.36633,1.04356,1.43456,0.0,0.0,0.0,-0.0292677,0.00487678,0.0146396,0.0,0.0,0.0,0.0,0.0,0.0,0.116275,0.0,0.0,0.0,0.0,0.0,0,1,1,1,1,0,0,0,0,0,0,0
993634057,0,0.0,0.0,0,-5.36648,1.0436,1.43463,0.0,0.0,0.0,-0.0313557,0.00658397,0.0131288,0.0,0.0,0.0,0.0,0.0,0.0,0.116313,0.0,0.0,0.0,0.0,0.0,0,1,1,1,1,0,0,0,0,0,0,0
993639085,0,0.0,0.0,0,-5.36664,1.04364,1.43468,0.0,0.0,0.0,-0.0303237,0.00842721,0.0105389,0.0,0.0,0.0,0.0,0.0,0.0,0.116413,0.0,0.0,0.0,0.0,0.0,0,1,1,1,1,0,0,0,0,0,0,0
993644197,0,0.0,0.0,0,-5.3668,1.04367,1.43475,0.0,0.0,0.0,-0.0319361,0.00692907,0.0137766,0.0,0.0,0.0,0.0,0.0,0.0,0.116438,0.0,0.0,0.0,0.0,0.0,0,1,1,1,1,0,0,0,0,0,0,0
993649057,0,0.0,0.0,0,-5.36697,1.04371,1.4348,0.0,0.0,0.0,-0.0344374,0.00695357,0.010592,0.0,0.0,0.0,0.0,0.0,0.0,0.116425,0.0,0.0,0.0,0.0,0.0,0,1,1,1,1,0,0,0,0,0,0,0
993654050,0,0.0,0.0,0,-5.36714,1.04373,1.43489,0.0,0.0,0.0,-0.0345363,0.00550763,0.0175336,0.0,0.0,0.0,0.0,0.0,0.0,0.116419,0.0,0.0,0.0,0.0,0.0,0,1,1,1,1,0,0,0,0,0,0,0
993659010,0,0.0,0.0,0,-5.36731,1.04376,1.43497,0.0,0.0,0.0,-0.0334709,0.00583821,0.0166194,0.0,0.0,0.0,0.0,0.0,0.0,0.116398,0.0,0.0,0.0,0.0,0.0,0,1,1,1,1,0,0,0,0,0,0,0
993664057,0,0.0,0.0,0,-5.36749,1.04379,1.43504,0.0,0.0,0.0,-0.0360436,0.00594903,0.0127875,0.0,0.0,0.0,0.0,0.0,0.0,0.116356,0.0,0.0,0.0,0.0,0.0,0,1,1,1,1,0,0,0,0,0,0,0
993669186,0,0.0,0.0,0,-5.36767,1.04384,1.43508,0.0,0.0,0.0,-0.036494,0.00921499,0.00857235,0.0,0.0,0.0,0.0,0.0,0.0,0.116395,0.0,0.0,0.0,0.0,0.0,0,1,1,1,1,0,0,0,0,0,0,0
993674720,0,0.0,0.0,0,-5.36785,1.04387,1.43518,0.0,0.0,0.0,-0.0351091,0.00688506,0.0208799,0.0,0.0,0.0,0.0,0.0,0.0,0.116456,0.0,0.0,0.0,0.0,0.0,0,1,1,1,1,0,0,0,0,0,0,0
993679174,0,0.0,0.0,0,-5.36803,1.04391,1.43529,0.0,0.0,0.0,-0.0357985,0.00681765,0.0217564,0.0,0.0,0.0,0.0,0.0,0.0,0.116464,0.0,0.0,0.0,0.0,0.0,0,1,1,1,1,0,0,0,0,0,0,0
993684225,0,0.0,0.0,0,-5.36822,1.04394,1.43537,0.0,0.0,0.0,-0.0382043,0.0072026,0.0154869,0.0,0.0,0.0,0.0,0.0,0.0,0.116452,0.0,0.0,0.0,0.0,0.0,0,1,1,1,1,0,0,0,0,0,0,0
993689138,0,0.0,0.0,0,-5.36842,1.04399,1.43545,0.0,0.0,0.0,-0.0392383,0.00919415,0.0157418,0.0,0.0,0.0,0.0,0.0,0.0,0.11649,0.0,0.0,0.0,0.0,0.0,0,1,1,1,1,0,0,0,0,0,0,0
993694069,0,0.0,0.0,0,-5.36861,1.04403,1.43553,0.0,0.0,0.0,-0.0383351,0.00691601,0.0168707,0.0,0.0,0.0,0.0,0.0,0.0,0.116525,0.0,0.0,0.0,0.0,0.0,0,1,1,1,1,0,0,0,0,0,0,0
993699052,0,0.0,0.0,0,-5.36881,1.04406,1.43558,0.0,0.0,0.0,-0.0395945,0.00791867,0.00888774,0.0,0.0,0.0,0.0,0.0,0.0,0.116538,0.0,0.0,0.0,0.0,0.0,0,1,1,1,1,0,0,0,0,0,0,0
993704761,0,0.0,0.0,0,-5.369,1.0441,1.43565,0.0,0.0,0.0,-0.0397464,0.00778463,0.0141464,0.0,0.0,0.0,0.0,0.0,0.0,0.116563,0.0,0.0,0.0,0.0,0.0,0,1,1,1,1,0,0,0,0,0,0,0
993709134,0,0.0,0.0,0,-5.36626,1.04404,1.43635,0.0,0.0,0.0,-0.0286759,0.00190463,0.0286445,0.0,0.0,0.0,0.0,0.0,0.0,0.116589,0.0,0.0,0.0,0.0,0.0,0,1,1,1,1,0,0,0,0,0,0,0
993714181,0,0.0,0.0,0,-5.3664,1.04406,1.43651,0.0,0.0,0.0,-0.0283467,0.00419068,0.0313025,0.0,0.0,0.0,0.0,0.0,0.0,0.116578,0.0,0.0,0.0,0.0,0.0,0,1,1,1,1,0,0,0,0,0,0,0
993719162,0,0.0,0.0,0,-5.36656,1.04407,1.43659,0.0,0.0,0.0,-0.0308933,0.00193466,0.0162711,0.0,0.0,0.0,0.0,0.0,0.0,0.116564,0.0,0.0,0.0,0.0,0.0,0,1,1,1,1,0,0,0,0,0,0,0
993724359,0,0.0,0.0,0,-5.36671,1.04408,1.43671,0.0,0.0,0.0,-0.0312998,0.00249706,0.0245637,0.0,0.0,0.0,0.0,0.0,0.0,0.116514,0.0,0.0,0.0,0.0,0.0,0,1,1,1,1,0,0,0,0,0,0,0
993729174,0,0.0,0.0,0,-5.36687,1.0441,1.43683,0.0,0.0,0.0,-0.0306953,0.00424432,0.0244315,0.0,0.0,0.0,0.0,0.0,0.0,0.116486,0.0,0.0,0.0,0.0,0.0,0,1,1,1,1,0,0,0,0,0,0,0
993734363,0,0.0,0.0,0,-5.36703,1.04414,1.43689,0.0,0.0,0.0,-0.0319963,0.00781081,0.0110595,0.0,0.0,0.0,0.0,0.0,0.0,0.116526,0.0,0.0,0.0,0.0,0.0,0,1,1,1,1,0,0,0,0,0,0,0
993739408,0,0.0,0.0,0,-5.3672,1.04417,1.43704,0.0,0.0,0.0,-0.0332403,0.00466248,0.029007,0.0,0.0,0.0,0.0,0.0,0.0,0.116557,0.0,0.0,0.0,0.0,0.0,0,1,1,1,1,0,0,0,0,0,0,0
993744138,0,0.0,0.0,0,-5.36735,1.0442,1.43719,0.0,0.0,0.0,-0.0309658,0.00742898,0.0300901,0.0,0.0,0.0,0.0,0.0,0.0,0.116593,0.0,0.0,0.0,0.0,0.0,0,1,1,1,1,0,0,0,0,0,0,0
993749148,0,0.0,0.0,0,-5.36752,1.04424,1.43726,0.0,0.0,0.0,-0.0340054,0.00771684,0.0150248,0.0,0.0,0.0,0.0,0.0,0.0,0.116671,0.0,0.0,0.0,0.0,0.0,0,1,1,1,1,0,0,0,0,0,0,0
993754140,0,0.0,0.0,0,-5.3677,1.04428,1.43734,0.0,0.0,0.0,-0.0360807,0.00701329,0.0158041,0.0,0.0,0.0,0.0,0.0,0.0,0.116713,0.0,0.0,0.0,0.0,0.0,0,1,1,1,1,0,0,0,0,0,0,0
993759288,0,0.0,0.0,0,-5.36788,1.04429,1.43746,0.0,0.0,0.0,-0.0360248,0.00286848,0.0239228,0.0,0.0,0.0,0.0,0.0,0.0,0.116665,0.0,0.0,0.0,0.0,0.0,0,1,1,1,1,0,0,0,0,0,0,0
993764547,0,0.0,0.0,0,-5.36805,1.04431,1.43766,0.0,0.0,0.0,-0.0346487,0.00388933,0.0406599,0.0,0.0,0.0,0.0,0.0,0.0,0.116591,0.0,0.0,0.0,0.0,0.0,0,1,1,1,1,0,0,0,0,0,0,0
993769129,0,0.0,0.0,0,-5.36825,1.04432,1.43776,0.0,0.0,0.0,-0.0384495,0.00168048,0.0183835,0.0,0.0,0.0,0.0,0.0,0.0,0.116526,0.0,0.0,0.0,0.0,0.0,0,1,1,1,1,0,0,0,0,0,0,0
993774432,0,0.0,0.0,0,-5.36845,1.04435,1.43784,0.0,0.0,0.0,-0.040348,0.00660152,0.0176712,0.0,0.0,0.0,0.0,0.0,0.0,0.116528,0.0,0.0,0.0,0.0,0.0,0,1,1,1,1,0,0,0,0,0,0,0
993779220,0,0.0,0.0,0,-5.36864,1.04439,1.43797,0.0,0.0,0.0,-0.0387666,0.00691398,0.0251581,0.0,0.0,0.0,0.0,0.0,0.0,0.116516,0.0,0.0,0.0,0.0,0.0,0,1,1,1,1,0,0,0,0,0,0,0
993784252,0,0.0,0.0,0,-5.36885,1.04443,1.43804,0.0,0.0,0.0,-0.0413787,0.00914059,0.01451,0.0,0.0,0.0,0.0,0.0,0.0,0.116552,0.0,0.0,0.0,0.0,0.0,0,1,1,1,1,0,0,0,0,0,0,0
993789729,0,0.0,0.0,0,-5.36906,1.04448,1.43821,0.0,0.0,0.0,-0.0409334,0.0100725,0.0333923,0.0,0.0,0.0,0.0,0.0,0.0,0.116684,0.0,0.0,0.0,0.0,0.0,0,1,1,1,1,0,0,0,0,0,0,0
993794407,0,0.0,0.0,0,-5.36924,1.04452,1.43841,0.0,0.0,0.0,-0.0371795,0.00716391,0.0404337,0.0,0.0,0.0,0.0,0.0,0.0,0.116729,0.0,0.0,0.0,0.0,0.0,0,1,1,1,1,0,0,0,0,0,0,0
993799168,0,0.0,0.0,0,-5.36943,1.04456,1.4385,0.0,0.0,0.0,-0.037995,0.00858623,0.0180586,0.0,0.0,0.0,0.0,0.0,0.0,0.116778,0.0,0.0,0.0,0.0,0.0,0,1,1,1,1,0,0,0,0,0,0,0
993804210,0,0.0,0.0,0,-5.36965,1.0446,1.43862,0.0,0.0,0.0,-0.0435517,0.00661661,0.0227747,0.0,0.0,0.0,0.0,0.0,0.0,0.116784,0.0,0.0,0.0,0.0,0.0,0,1,1,1,1,0,0,0,0,0,0,0
993809242,0,0.0,0.0,0,-5.36548,1.0466,1.43834,0.0,0.0,0.0,-0.0288769,0.0153222,0.0318788,0.0,0.0,0.0,0.0,0.0,0.0,0.116838,0.0,0.0,0.0,0.0,0.0,0,1,1,1,1,0,0,0,0,0,0,0
993814401,0,0.0,0.0,0,-5.36563,1.04665,1.43843,0.0,0.0,0.0,-0.02854,0.0106453,0.0190446,0.0,0.0,0.0,0.0,0.0,0.0,0.116948,0.0,0.0,0.0,0.0,0.0,0,1,1,1,1,0,0,0,0,0,0,0
993819395,0,0.0,0.0,0,-5.36577,1.0467,1.43857,0.0,0.0,0.0,-0.029267,0.00992657,0.0277655,0.0,0.0,0.0,0.0,0.0,0.0,0.116945,0.0,0.0,0.0,0.0,0.0,0,1,1,1,1,0,0,0,0,0,0,0
993824263,0,0.0,0.0,0,-5.36592,1.04673,1.43877,0.0,0.0,0.0,-0.0295518,0.00514584,0.0399917,0.0,0.0,0.0,0.0,0.0,0.0,0.116739,0.0,0.0,0.0,0.0,0.0,0,1,1,1,1,0,0,0,0,0,0,0
993829380,0,0.0,0.0,0,-5.36607,1.04679,1.43887,0.0,0.0,0.0,-0.0300615,0.0124527,0.0187784,0.0,0.0,0.0,0.0,0.0,0.0,0.11665,0.0,0.0,0.0,0.0,0.0,0,1,1,1,1,0,0,0,0,0,0,0
993834378,0,0.0,0.0,0,-5.36623,1.04685,1.43906,0.0,0.0,0.0,-0.0318802,0.011455,0.0378426,0.0,0.0,0.0,0.0,0.0,0.0,0.116729,0.0,0.0,0.0,0.0,0.0,0,1,1,1,1,0,0,0,0,0,0,0
993839336,0,0.0,0.0,0,-5.36638,1.04689,1.43933,0.0,0.0,0.0,-0.0290093,0.00859055,0.054938,0.0,0.0,0.0,0.0,0.0,0.0,0.116531,0.0,0.0,0.0,0.0,0.0,0,1,1,1,1,0,0,0,0,0,0,0
993844271,0,0.0,0.0,0,-5.36652,1.04697,1.43945,0.0,0.0,0.0,-0.0295145,0.0162199,0.0244013,0.0,0.0,0.0,0.0,0.0,0.0,0.116575,0.0,0.0,0.0,0.0,0.0,0,1,1,1,1,0,0,0,0,0,0,0
993849299,0,0.0,0.0,0,-5.36668,1.04703,1.43958,0.0,0.0,0.0,-0.0311102,0.0109849,0.0264331,0.0,0.0,0.0,0.0,0.0,0.0,0.116726,0.0,0.0,0.0,0.0,0.0,0,1,1,1,1,0,0,0,0,0,0,0
