timestamp,ref_timestamp,ref_lat,ref_lon,surface_bottom_timestamp,x,y,z,delta_xy[0],delta_xy[1],delta_z,vx,vy,vz,delta_vxy[0],delta_vxy[1],delta_vz,ax,ay,az,yaw,ref_alt,dist_bottom,dist_bottom_rate,eph,epv,estimator_type,xy_valid,z_valid,v_xy_valid,v_z_valid,xy_reset_counter,z_reset_counter,vxy_reset_counter,vz_reset_counter,xy_global,z_global,dist_bottom_valid
199704141,0,0.0,0.0,0,1.68536,-0.238959,1.42753,0.0,0.0,0.0,-0.00483578,0.0130574,-0.0182852,0.0,0.0,0.0,0.0,0.0,0.0,-1.43457,0.0,0.0,0.0,0.0,0.0,0,1,1,1,1,0,0,0,0,0,0,0
199709339,0,0.0,0.0,0,1.68533,-0.238894,1.42743,0.0,0.0,0.0,-0.00498338,0.0130991,-0.0186672,0.0,0.0,0.0,0.0,0.0,0.0,-1.43458,0.0,0.0,0.0,0.0,0.0,0,1,1,1,1,0,0,0,0,0,0,0
199709339,0,0.0,0.0,0,1.68533,-0.238894,1.42743,0.0,0.0,0.0,-0.00498338,0.0130991,-0.0186672,0.0,0.0,0.0,0.0,0.0,0.0,-1.43458,0.0,0.0,0.0,0.0,0.0,0,1,1,1,1,0,0,0,0,0,0,0
199716975,0,0.0,0.0,0,1.68545,-0.23923,1.42871,0.0,0.0,0.0,-0.00318618,0.00997987,-0.0102302,0.0,0.0,0.0,0.0,0.0,0.0,-1.43462,0.0,0.0,0.0,0.0,0.0,0,1,1,1,1,0,0,0,0,0,0,0
199719543,0,0.0,0.0,0,1.68544,-0.239178,1.42866,0.0,0.0,0.0,-0.00343311,0.0104935,-0.0102855,0.0,0.0,0.0,0.0,0.0,0.0,-1.43462,0.0,0.0,0.0,0.0,0.0,0,1,1,1,1,0,0,0,0,0,0,0
199724509,0,0.0,0.0,0,1.68542,-0.239123,1.4286,0.0,0.0,0.0,-0.00330472,0.0109,-0.0101538,0.0,0.0,0.0,0.0,0.0,0.0,-1.43462,0.0,0.0,0.0,0.0,0.0,0,1,1,1,1,0,0,0,0,0,0,0
199729262,0,0.0,0.0,0,1.6854,-0.239066,1.42855,0.0,0.0,0.0,-0.00285156,0.0115217,-0.0112097,0.0,0.0,0.0,0.0,0.0,0.0,-1.43463,0.0,0.0,0.0,0.0,0.0,0,1,1,1,1,0,0,0,0,0,0,0
199734456,0,0.0,0.0,0,1.68539,-0.239007,1.42849,0.0,0.0,0.0,-0.00270335,0.0116922,-0.0122411,0.0,0.0,0.0,0.0,0.0,0.0,-1.43463,0.0,0.0,0.0,0.0,0.0,0,1,1,1,1,0,0,0,0,0,0,0
199739730,0,0.0,0.0,0,1.68537,-0.238948,1.42842,0.0,0.0,0.0,-0.00367291,0.0117111,-0.0128424,0.0,0.0,0.0,0.0,0.0,0.0,-1.43464,0.0,0.0,0.0,0.0,0.0,0,1,1,1,1,0,0,0,0,0,0,0
199744720,0,0.0,0.0,0,1.68535,-0.23889,1.42836,0.0,0.0,0.0,-0.00455563,0.0116067,-0.0125577,0.0,0.0,0.0,0.0,0.0,0.0,-1.43468,0.0,0.0,0.0,0.0,0.0,0,1,1,1,1,0,0,0,0,0,0,0
199749293,0,0.0,0.0,0,1.68533,-0.238826,1.42829,0.0,0.0,0.0,-0.00434151,0.012742,-0.0134285,0.0,0.0,0.0,0.0,0.0,0.0,-1.43471,0.0,0.0,0.0,0.0,0.0,0,1,1,1,1,0,0,0,0,0,0,0
199754227,0,0.0,0.0,0,1.68531,-0.238758,1.42821,0.0,0.0,0.0,-0.00391616,0.0137265,-0.0163731,0.0,0.0,0.0,0.0,0.0,0.0,-1.43472,0.0,0.0,0.0,0.0,0.0,0,1,1,1,1,0,0,0,0,0,0,0
199759349,0,0.0,0.0,0,1.68529,-0.238686,1.42813,0.0,0.0,0.0,-0.00410888,0.0143706,-0.0166,0.0,0.0,0.0,0.0,0.0,0.0,-1.43471,0.0,0.0,0.0,0.0,0.0,0,1,1,1,1,0,0,0,0,0,0,0
199764345,0,0.0,0.0,0,1.68527,-0.238611,1.42805,0.0,0.0,0.0,-0.00418088,0.0148166,-0.0157389,0.0,0.0,0.0,0.0,0.0,0.0,-1.43471,0.0,0.0,0.0,0.0,0.0,0,1,1,1,1,0,0,0,0,0,0,0
199769298,0,0.0,0.0,0,1.68525,-0.238538,1.42797,0.0,0.0,0.0,-0.00437344,0.0147676,-0.016559,0.0,0.0,0.0,0.0,0.0,0.0,-1.43471,0.0,0.0,0.0,0.0,0.0,0,1,1,1,1,0,0,0,0,0,0,0
199774301,0,0.0,0.0,0,1.68522,-0.238465,1.42788,0.0,0.0,0.0,-0.00442044,0.0143844,-0.0165818,0.0,0.0,0.0,0.0,0.0,0.0,-1.4347,0.0,0.0,0.0,0.0,0.0,0,1,1,1,1,0,0,0,0,0,0,0
199779465,0,0.0,0.0,0,1.6852,-0.238392,1.4278,0.0,0.0,0.0,-0.00495761,0.0146483,-0.0169939,0.0,0.0,0.0,0.0,0.0,0.0,-1.4347,0.0,0.0,0.0,0.0,0.0,0,1,1,1,1,0,0,0,0,0,0,0
199784368,0,0.0,0.0,0,1.68517,-0.238315,1.42771,0.0,0.0,0.0,-0.00514919,0.0153197,-0.0169944,0.0,0.0,0.0,0.0,0.0,0.0,-1.43471,0.0,0.0,0.0,0.0,0.0,0,1,1,1,1,0,0,0,0,0,0,0
199794302,0,0.0,0.0,0,1.68511,-0.238173,1.42754,0.0,0.0,0.0,-0.00696629,0.0137428,-0.0182535,0.0,0.0,0.0,0.0,0.0,0.0,-1.43472,0.0,0.0,0.0,0.0,0.0,0,1,1,1,1,0,0,0,0,0,0,0
199799350,0,0.0,0.0,0,1.68507,-0.238105,1.42745,0.0,0.0,0.0,-0.00767435,0.0135697,-0.0188322,0.0,0.0,0.0,0.0,0.0,0.0,-1.43474,0.0,0.0,0.0,0.0,0.0,0,1,1,1,1,0,0,0,0,0,0,0
199804313,0,0.0,0.0,0,1.68502,-0.238032,1.42735,0.0,0.0,0.0,-0.00919518,0.0146046,-0.0180833,0.0,0.0,0.0,0.0,0.0,0.0,-1.43475,0.0,0.0,0.0,0.0,0.0,0,1,1,1,1,0,0,0,0,0,0,0
199809460,0,0.0,0.0,0,1.68497,-0.237952,1.42726,0.0,0.0,0.0,-0.0100121,0.0159916,-0.0189673,0.0,0.0,0.0,0.0,0.0,0.0,-1.43476,0.0,0.0,0.0,0.0,0.0,0,1,1,1,1,0,0,0,0,0,0,0
199814355,0,0.0,0.0,0,1.68527,-0.238436,1.42904,0.0,0.0,0.0,-0.00830065,0.0126677,-0.0107531,0.0,0.0,0.0,0.0,0.0,0.0,-1.4348,0.0,0.0,0.0,0.0,0.0,0,1,1,1,1,0,0,0,0,0,0,0
199819858,0,0.0,0.0,0,1.68523,-0.23837,1.42899,0.0,0.0,0.0,-0.00849414,0.013041,-0.0115827,0.0,0.0,0.0,0.0,0.0,0.0,-1.4348,0.0,0.0,0.0,0.0,0.0,0,1,1,1,1,0,0,0,0,0,0,0
199824391,0,0.0,0.0,0,1.68518,-0.238308,1.42893,0.0,0.0,0.0,-0.00885318,0.0125061,-0.0119978,0.0,0.0,0.0,0.0,0.0,0.0,-1.4348,0.0,0.0,0.0,0.0,0.0,0,1,1,1,1,0,0,0,0,0,0,0
199829365,0,0.0,0.0,0,1.68513,-0.238248,1.42887,0.0,0.0,0.0,-0.00969696,0.0119687,-0.0107568,0.0,0.0,0.0,0.0,0.0,0.0,-1.4348,0.0,0.0,0.0,0.0,0.0,0,1,1,1,1,0,0,0,0,0,0,0
199834645,0,0.0,0.0,0,1.68509,-0.238189,1.42882,0.0,0.0,0.0,-0.00980258,0.0117275,-0.0103139,0.0,0.0,0.0,0.0,0.0,0.0,-1.4348,0.0,0.0,0.0,0.0,0.0,0,1,1,1,1,0,0,0,0,0,0,0
199839388,0,0.0,0.0,0,1.68504,-0.23813,1.42876,0.0,0.0,0.0,-0.00892565,0.0117189,-0.012496,0.0,0.0,0.0,0.0,0.0,0.0,-1.4348,0.0,0.0,0.0,0.0,0.0,0,1,1,1,1,0,0,0,0,0,0,0
199844477,0,0.0,0.0,0,1.685,-0.238068,1.42869,0.0,0.0,0.0,-0.00878861,0.0123482,-0.0133021,0.0,0.0,0.0,0.0,0.0,0.0,-1.4348,0.0,0.0,0.0,0.0,0.0,0,1,1,1,1,0,0,0,0,0,0,0
199849494,0,0.0,0.0,0,1.68495,-0.238008,1.42863,0.0,0.0,0.0,-0.00917359,0.0120396,-0.0119889,0.0,0.0,0.0,0.0,0.0,0.0,-1.43477,0.0,0.0,0.0,0.0,0.0,0,1,1,1,1,0,0,0,0,0,0,0
199854471,0,0.0,0.0,0,1.68489,-0.237946,1.42858,0.0,0.0,0.0,-0.0114342,0.0123999,-0.0105472,0.0,0.0,0.0,0.0,0.0,0.0,-1.43476,0.0,0.0,0.0,0.0,0.0,0,1,1,1,1,0,0,0,0,0,0,0
199859800,0,0.0,0.0,0,1.68483,-0.237877,1.42851,0.0,0.0,0.0,-0.0120322,0.0138705,-0.0146449,0.0,0.0,0.0,0.0,0.0,0.0,-1.43481,0.0,0.0,0.0,0.0,0.0,0,1,1,1,1,0,0,0,0,0,0,0
199864599,0,0.0,0.0,0,1.68477,-0.237804,1.42843,0.0,0.0,0.0,-0.0117753,0.0144656,-0.0155678,0.0,0.0,0.0,0.0,0.0,0.0,-1.43485,0.0,0.0,0.0,0.0,0.0,0,1,1,1,1,0,0,0,0,0,0,0
199869633,0,0.0,0.0,0,1.68471,-0.237731,1.42837,0.0,0.0,0.0,-0.0127731,0.0146914,-0.0120799,0.0,0.0,0.0,0.0,0.0,0.0,-1.43486,0.0,0.0,0.0,0.0,0.0,0,1,1,1,1,0,0,0,0,0,0,0
199874454,0,0.0,0.0,0,1.68464,-0.237651,1.4283,0.0,0.0,0.0,-0.0136605,0.0158672,-0.0142741,0.0,0.0,0.0,0.0,0.0,0.0,-1.43485,0.0,0.0,0.0,0.0,0.0,0,1,1,1,1,0,0,0,0,0,0,0
199879964,0,0.0,0.0,0,1.68457,-0.237573,1.42823,0.0,0.0,0.0,-0.0149779,0.0155659,-0.013999,0.0,0.0,0.0,0.0,0.0,0.0,-1.43486,0.0,0.0,0.0,0.0,0.0,0,1,1,1,1,0,0,0,0,0,0,0
199884999,0,0.0,0.0,0,1.6845,-0.237495,1.42815,0.0,0.0,0.0,-0.0139975,0.0155362,-0.0148106,0.0,0.0,0.0,0.0,0.0,0.0,-1.43484,0.0,0.0,0.0,0.0,0.0,0,1,1,1,1,0,0,0,0,0,0,0
199894524,0,0.0,0.0,0,1.68436,-0.237338,1.42801,0.0,0.0,0.0,-0.0145087,0.0156125,-0.0127728,0.0,0.0,0.0,0.0,0.0,0.0,-1.43483,0.0,0.0,0.0,0.0,0.0,0,1,1,1,1,0,0,0,0,0,0,0
199899471,0,0.0,0.0,0,1.68427,-0.237255,1.42793,0.0,0.0,0.0,-0.0162969,0.0166483,-0.0144339,0.0,0.0,0.0,0.0,0.0,0.0,-1.43483,0.0,0.0,0.0,0.0,0.0,0,1,1,1,1,0,0,0,0,0,0,0
199905129,0,0.0,0.0,0,1.6842,-0.237171,1.42784,0.0,0.0,0.0,-0.014788,0.0167027,-0.0190867,0.0,0.0,0.0,0.0,0.0,0.0,-1.43485,0.0,0.0,0.0,0.0,0.0,0,1,1,1,1,0,0,0,0,0,0,0
199909467,0,0.0,0.0,0,1.68469,-0.239125,1.4286,0.0,0.0,0.0,-0.0122253,0.0114224,-0.00408519,0.0,0.0,0.0,0.0,0.0,0.0,-1.43493,0.0,0.0,0.0,0.0,0.0,0,1,1,1,1,0,0,0,0,0,0,0
199914560,0,0.0,0.0,0,1.68463,-0.239067,1.42857,0.0,0.0,0.0,-0.0120496,0.0116012,-0.00617681,0.0,0.0,0.0,0.0,0.0,0.0,-1.43491,0.0,0.0,0.0,0.0,0.0,0,1,1,1,1,0,0,0,0,0,0,0
199919893,0,0.0,0.0,0,1.68458,-0.239007,1.42853,0.0,0.0,0.0,-0.0109822,0.0119441,-0.0085591,0.0,0.0,0.0,0.0,0.0,0.0,-1.43491,0.0,0.0,0.0,0.0,0.0,0,1,1,1,1,0,0,0,0,0,0,0
199924539,0,0.0,0.0,0,1.68452,-0.238951,1.4285,0.0,0.0,0.0,-0.011591,0.0113369,-0.0054612,0.0,0.0,0.0,0.0,0.0,0.0,-1.43492,0.0,0.0,0.0,0.0,0.0,0,1,1,1,1,0,0,0,0,0,0,0
199929628,0,0.0,0.0,0,1.68446,-0.238892,1.42846,0.0,0.0,0.0,-0.0126286,0.0117618,-0.00766983,0.0,0.0,0.0,0.0,0.0,0.0,-1.43492,0.0,0.0,0.0,0.0,0.0,0,1,1,1,1,0,0,0,0,0,0,0
199934542,0,0.0,0.0,0,1.6844,-0.23883,1.42843,0.0,0.0,0.0,-0.0122178,0.0123949,-0.00586414,0.0,0.0,0.0,0.0,0.0,0.0,-1.43493,0.0,0.0,0.0,0.0,0.0,0,1,1,1,1,0,0,0,0,0,0,0
199939775,0,0.0,0.0,0,1.68434,-0.238768,1.4284,0.0,0.0,0.0,-0.0113507,0.012243,-0.00676072,0.0,0.0,0.0,0.0,0.0,0.0,-1.43493,0.0,0.0,0.0,0.0,0.0,0,1,1,1,1,0,0,0,0,0,0,0
199944574,0,0.0,0.0,0,1.68428,-0.238709,1.42836,0.0,0.0,0.0,-0.0110792,0.0118219,-0.00835472,0.0,0.0,0.0,0.0,0.0,0.0,-1.43491,0.0,0.0,0.0,0.0,0.0,0,1,1,1,1,0,0,0,0,0,0,0
199949629,0,0.0,0.0,0,1.68423,-0.238649,1.42833,0.0,0.0,0.0,-0.0102232,0.0119866,-0.00588245,0.0,0.0,0.0,0.0,0.0,0.0,-1.43492,0.0,0.0,0.0,0.0,0.0,0,1,1,1,1,0,0,0,0,0,0,0
199954692,0,0.0,0.0,0,1.68418,-0.238582,1.4283,0.0,0.0,0.0,-0.0103162,0.0133112,-0.00642505,0.0,0.0,0.0,0.0,0.0,0.0,-1.43494,0.0,0.0,0.0,0.0,0.0,0,1,1,1,1,0,0,0,0,0,0,0
199959643,0,0.0,0.0,0,1.68413,-0.238517,1.42825,0.0,0.0,0.0,-0.0106416,0.0130101,-0.00906294,0.0,0.0,0.0,0.0,0.0,0.0,-1.43494,0.0,0.0,0.0,0.0,0.0,0,1,1,1,1,0,0,0,0,0,0,0
199964765,0,0.0,0.0,0,1.68408,-0.238455,1.42822,0.0,0.0,0.0,-0.0100232,0.0124907,-0.00675812,0.0,0.0,0.0,0.0,0.0,0.0,-1.43496,0.0,0.0,0.0,0.0,0.0,0,1,1,1,1,0,0,0,0,0,0,0
199969662,0,0.0,0.0,0,1.68403,-0.238391,1.42818,0.0,0.0,0.0,-0.00946813,0.0126465,-0.00780928,0.0,0.0,0.0,0.0,0.0,0.0,-1.43495,0.0,0.0,0.0,0.0,0.0,0,1,1,1,1,0,0,0,0,0,0,0
199974819,0,0.0,0.0,0,1.68398,-0.238332,1.42815,0.0,0.0,0.0,-0.0095059,0.0118575,-0.00541002,0.0,0.0,0.0,0.0,0.0,0.0,-1.43493,0.0,0.0,0.0,0.0,0.0,0,1,1,1,1,0,0,0,0,0,0,0
199979766,0,0.0,0.0,0,1.68393,-0.23827,1.42813,0.0,0.0,0.0,-0.00943958,0.0123011,-0.00426128,0.0,0.0,0.0,0.0,0.0,0.0,-1.43494,0.0,0.0,0.0,0.0,0.0,0,1,1,1,1,0,0,0,0,0,0,0
199984615,0,0.0,0.0,0,1.68389,-0.238199,1.42808,0.0,0.0,0.0,-0.00956594,0.0143133,-0.00886403,0.0,0.0,0.0,0.0,0.0,0.0,-1.43493,0.0,0.0,0.0,0.0,0.0,0,1,1,1,1,0,0,0,0,0,0,0
199989731,0,0.0,0.0,0,1.68383,-0.238131,1.42807,0.0,0.0,0.0,-0.0118376,0.0134875,-0.00294054,0.0,0.0,0.0,0.0,0.0,0.0,-1.43494,0.0,0.0,0.0,0.0,0.0,0,1,1,1,1,0,0,0,0,0,0,0
199994878,0,0.0,0.0,0,1.68377,-0.23806,1.42805,0.0,0.0,0.0,-0.011506,0.0142385,-0.003674,0.0,0.0,0.0,0.0,0.0,0.0,-1.43497,0.0,0.0,0.0,0.0,0.0,0,1,1,1,1,0,0,0,0,0,0,0
199999886,0,0.0,0.0,0,1.68371,-0.237982,1.42802,0.0,0.0,0.0,-0.0112905,0.0154637,-0.005988,0.0,0.0,0.0,0.0,0.0,0.0,-1.43493,0.0,0.0,0.0,0.0,0.0,0,1,1,1,1,0,0,0,0,0,0,0
200004813,0,0.0,0.0,0,1.68364,-0.237913,1.42801,0.0,0.0,0.0,-0.0137322,0.0137762,-0.00200376,0.0,0.0,0.0,0.0,0.0,0.0,-1.43492,0.0,0.0,0.0,0.0,0.0,0,1,1,1,1,0,0,0,0,0,0,0
200009666,0,0.0,0.0,0,1.68358,-0.237837,1.428,0.0,0.0,0.0,-0.0133087,0.015317,-0.00306789,0.0,0.0,0.0,0.0,0.0,0.0,-1.43495,0.0,0.0,0.0,0.0,0.0,0,1,1,1,1,0,0,0,0,0,0,0
200014690,0,0.0,0.0,0,1.68461,-0.238024,1.42913,0.0,0.0,0.0,-0.00970087,0.0134386,0.00229736,0.0,0.0,0.0,0.0,0.0,0.0,-1.43495,0.0,0.0,0.0,0.0,0.0,0,1,1,1,1,0,0,0,0,0,0,0
200019990,0,0.0,0.0,0,1.68456,-0.237965,1.42916,0.0,0.0,0.0,-0.00862878,0.0116977,0.00726514,0.0,0.0,0.0,0.0,0.0,0.0,-1.43494,0.0,0.0,0.0,0.0,0.0,0,1,1,1,1,0,0,0,0,0,0,0
200024673,0,0.0,0.0,0,1.68452,-0.237903,1.42918,0.0,0.0,0.0,-0.0089103,0.0122843,0.00341746,0.0,0.0,0.0,0.0,0.0,0.0,-1.43493,0.0,0.0,0.0,0.0,0.0,0,1,1,1,1,0,0,0,0,0,0,0
200029742,0,0.0,0.0,0,1.68447,-0.237838,1.4292,0.0,0.0,0.0,-0.0089182,0.0131144,0.00388976,0.0,0.0,0.0,0.0,0.0,0.0,-1.43493,0.0,0.0,0.0,0.0,0.0,0,1,1,1,1,0,0,0,0,0,0,0
200034746,0,0.0,0.0,0,1.68444,-0.237778,1.42924,0.0,0.0,0.0,-0.00742979,0.0118694,0.00909141,0.0,0.0,0.0,0.0,0.0,0.0,-1.43496,0.0,0.0,0.0,0.0,0.0,0,1,1,1,1,0,0,0,0,0,0,0
200039836,0,0.0,0.0,0,1.68441,-0.237713,1.42926,0.0,0.0,0.0,-0.00588566,0.0129815,0.00312534,0.0,0.0,0.0,0.0,0.0,0.0,-1.43497,0.0,0.0,0.0,0.0,0.0,0,1,1,1,1,0,0,0,0,0,0,0
200044725,0,0.0,0.0,0,1.68438,-0.237648,1.4293,0.0,0.0,0.0,-0.00601469,0.0129993,0.00805787,0.0,0.0,0.0,0.0,0.0,0.0,-1.43494,0.0,0.0,0.0,0.0,0.0,0,1,1,1,1,0,0,0,0,0,0,0
200049789,0,0.0,0.0,0,1.68436,-0.237585,1.42934,0.0,0.0,0.0,-0.00453841,0.0125085,0.00818352,0.0,0.0,0.0,0.0,0.0,0.0,-1.43495,0.0,0.0,0.0,0.0,0.0,0,1,1,1,1,0,0,0,0,0,0,0
200054767,0,0.0,0.0,0,1.68433,-0.237512,1.42936,0.0,0.0,0.0,-0.00490895,0.014613,0.00321217,0.0,0.0,0.0,0.0,0.0,0.0,-1.43494,0.0,0.0,0.0,0.0,0.0,0,1,1,1,1,0,0,0,0,0,0,0
200059806,0,0.0,0.0,0,1.6843,-0.237445,1.42941,0.0,0.0,0.0,-0.00578894,0.0134741,0.0111371,0.0,0.0,0.0,0.0,0.0,0.0,-1.43494,0.0,0.0,0.0,0.0,0.0,0,1,1,1,1,0,0,0,0,0,0,0
200064755,0,0.0,0.0,0,1.68428,-0.23738,1.42947,0.0,0.0,0.0,-0.00460014,0.0129369,0.0107358,0.0,0.0,0.0,0.0,0.0,0.0,-1.43496,0.0,0.0,0.0,0.0,0.0,0,1,1,1,1,0,0,0,0,0,0,0
200070026,0,0.0,0.0,0,1.68425,-0.237307,1.4295,0.0,0.0,0.0,-0.0061109,0.0145813,0.00593715,0.0,0.0,0.0,0.0,0.0,0.0,-1.43496,0.0,0.0,0.0,0.0,0.0,0,1,1,1,1,0,0,0,0,0,0,0
200074791,0,0.0,0.0,0,1.68422,-0.237242,1.42956,0.0,0.0,0.0,-0.00515167,0.0129913,0.0118361,0.0,0.0,0.0,0.0,0.0,0.0,-1.43497,0.0,0.0,0.0,0.0,0.0,0,1,1,1,1,0,0,0,0,0,0,0
200079798,0,0.0,0.0,0,1.6842,-0.237176,1.42961,0.0,0.0,0.0,-0.00459648,0.0131751,0.0110894,0.0,0.0,0.0,0.0,0.0,0.0,-1.43497,0.0,0.0,0.0,0.0,0.0,0,1,1,1,1,0,0,0,0,0,0,0
200084814,0,0.0,0.0,0,1.68417,-0.237105,1.42965,0.0,0.0,0.0,-0.00652186,0.0140895,0.00827103,0.0,0.0,0.0,0.0,0.0,0.0,-1.43496,0.0,0.0,0.0,0.0,0.0,0,1,1,1,1,0,0,0,0,0,0,0
200090856,0,0.0,0.0,0,1.68414,-0.237036,1.42972,0.0,0.0,0.0,-0.00604561,0.0138106,0.0140654,0.0,0.0,0.0,0.0,0.0,0.0,-1.43498,0.0,0.0,0.0,0.0,0.0,0,1,1,1,1,0,0,0,0,0,0,0
200094799,0,0.0,0.0,0,1.68412,-0.236958,1.42976,0.0,0.0,0.0,-0.0041161,0.0155526,0.00689829,0.0,0.0,0.0,0.0,0.0,0.0,-1.43498,0.0,0.0,0.0,0.0,0.0,0,1,1,1,1,0,0,0,0,0,0,0
200099843,0,0.0,0.0,0,1.68408,-0.236878,1.42981,0.0,0.0,0.0,-0.00679683,0.0160418,0.0104305,0.0,0.0,0.0,0.0,0.0,0.0,-1.43496,0.0,0.0,0.0,0.0,0.0,0,1,1,1,1,0,0,0,0,0,0,0
200104849,0,0.0,0.0,0,1.68404,-0.236806,1.42989,0.0,0.0,0.0,-0.00776908,0.0143362,0.0161091,0.0,0.0,0.0,0.0,0.0,0.0,-1.43498,0.0,0.0,0.0,0.0,0.0,0,1,1,1,1,0,0,0,0,0,0,0
200109949,0,0.0,0.0,0,1.68402,-0.236723,1.42993,0.0,0.0,0.0,-0.00503436,0.0165578,0.00778954,0.0,0.0,0.0,0.0,0.0,0.0,-1.43499,0.0,0.0,0.0,0.0,0.0,0,1,1,1,1,0,0,0,0,0,0,0
200114843,0,0.0,0.0,0,1.68399,-0.236643,1.42999,0.0,0.0,0.0,-0.00637376,0.016015,0.0112927,0.0,0.0,0.0,0.0,0.0,0.0,-1.43498,0.0,0.0,0.0,0.0,0.0,0,1,1,1,1,0,0,0,0,0,0,0
200120819,0,0.0,0.0,0,1.68552,-0.240016,1.43293,0.0,0.0,0.0,-0.00282057,0.00893006,0.0288126,0.0,0.0,0.0,0.0,0.0,0.0,-1.43494,0.0,0.0,0.0,0.0,0.0,0,1,1,1,1,0,0,0,0,0,0,0
200125000,0,0.0,0.0,0,1.68551,-0.239958,1.43306,0.0,0.0,0.0,-0.00251823,0.0115369,0.0251018,0.0,0.0,0.0,0.0,0.0,0.0,-1.43494,0.0,0.0,0.0,0.0,0.0,0,1,1,1,1,0,0,0,0,0,0,0
200129935,0,0.0,0.0,0,1.6855,-0.239907,1.43319,0.0,0.0,0.0,-0.00221399,0.0102108,0.0267286,0.0,0.0,0.0,0.0,0.0,0.0,-1.43494,0.0,0.0,0.0,0.0,0.0,0,1,1,1,1,0,0,0,0,0,0,0
200135087,0,0.0,0.0,0,1.68549,-0.239857,1.43332,0.0,0.0,0.0,-0.00209854,0.00987074,0.0248031,0.0,0.0,0.0,0.0,0.0,0.0,-1.43494,0.0,0.0,0.0,0.0,0.0,0,1,1,1,1,0,0,0,0,0,0,0
200139884,0,0.0,0.0,0,1.68548,-0.239799,1.43344,0.0,0.0,0.0,-0.000968417,0.011706,0.0238383,0.0,0.0,0.0,0.0,0.0,0.0,-1.43495,0.0,0.0,0.0,0.0,0.0,0,1,1,1,1,0,0,0,0,0,0,0
200145041,0,0.0,0.0,0,1.68548,-0.239746,1.4336,0.0,0.0,0.0,-0.000964111,0.0104786,0.0338175,0.0,0.0,0.0,0.0,0.0,0.0,-1.43495,0.0,0.0,0.0,0.0,0.0,0,1,1,1,1,0,0,0,0,0,0,0
200149995,0,0.0,0.0,0,1.68548,-0.239692,1.43374,0.0,0.0,0.0,0.000271811,0.0107311,0.0267744,0.0,0.0,0.0,0.0,0.0,0.0,-1.43493,0.0,0.0,0.0,0.0,0.0,0,1,1,1,1,0,0,0,0,0,0,0
200155015,0,0.0,0.0,0,1.68548,-0.23963,1.43385,0.0,0.0,0.0,-0.00102498,0.0124925,0.0213906,0.0,0.0,0.0,0.0,0.0,0.0,-1.43492,0.0,0.0,0.0,0.0,0.0,0,1,1,1,1,0,0,0,0,0,0,0
200160376,0,0.0,0.0,0,1.68547,-0.239573,1.434,0.0,0.0,0.0,-0.000206465,0.0114275,0.031347,0.0,0.0,0.0,0.0,0.0,0.0,-1.43492,0.0,0.0,0.0,0.0,0.0,0,1,1,1,1,0,0,0,0,0,0,0
200164913,0,0.0,0.0,0,1.68548,-0.239511,1.43414,0.0,0.0,0.0,0.000523062,0.0122074,0.0278908,0.0,0.0,0.0,0.0,0.0,0.0,-1.43492,0.0,0.0,0.0,0.0,0.0,0,1,1,1,1,0,0,0,0,0,0,0
200169990,0,0.0,0.0,0,1.68547,-0.239443,1.43427,0.0,0.0,0.0,-0.0012396,0.0136789,0.0253093,0.0,0.0,0.0,0.0,0.0,0.0,-1.43493,0.0,0.0,0.0,0.0,0.0,0,1,1,1,1,0,0,0,0,0,0,0
200174899,0,0.0,0.0,0,1.68547,-0.239383,1.43441,0.0,0.0,0.0,-0.000740634,0.0119619,0.0288593,0.0,0.0,0.0,0.0,0.0,0.0,-1.43493,0.0,0.0,0.0,0.0,0.0,0,1,1,1,1,0,0,0,0,0,0,0
200179978,0,0.0,0.0,0,1.68546,-0.239318,1.43455,0.0,0.0,0.0,-0.00114573,0.0130641,0.0263953,0.0,0.0,0.0,0.0,0.0,0.0,-1.43491,0.0,0.0,0.0,0.0,0.0,0,1,1,1,1,0,0,0,0,0,0,0
200184906,0,0.0,0.0,0,1.68544,-0.239247,1.43469,0.0,0.0,0.0,-0.00341245,0.0141913,0.0279407,0.0,0.0,0.0,0.0,0.0,0.0,-1.43492,0.0,0.0,0.0,0.0,0.0,0,1,1,1,1,0,0,0,0,0,0,0
200195155,0,0.0,0.0,0,1.68542,-0.239113,1.43497,0.0,0.0,0.0,-0.00195528,0.013735,0.0241045,0.0,0.0,0.0,0.0,0.0,0.0,-1.43491,0.0,0.0,0.0,0.0,0.0,0,1,1,1,1,0,0,0,0,0,0,0
200199972,0,0.0,0.0,0,1.68541,-0.239043,1.43512,0.0,0.0,0.0,-0.00340443,0.0140924,0.0294861,0.0,0.0,0.0,0.0,0.0,0.0,-1.43493,0.0,0.0,0.0,0.0,0.0,0,1,1,1,1,0,0,0,0,0,0,0
200204948,0,0.0,0.0,0,1.6854,-0.23898,1.43529,0.0,0.0,0.0,-0.00104975,0.012529,0.0327876,0.0,0.0,0.0,0.0,0.0,0.0,-1.43493,0.0,0.0,0.0,0.0,0.0,0,1,1,1,1,0,0,0,0,0,0,0
200209955,0,0.0,0.0,0,1.6854,-0.238911,1.43542,0.0,0.0,0.0,-0.00050887,0.0138022,0.026665,0.0,0.0,0.0,0.0,0.0,0.0,-1.43493,0.0,0.0,0.0,0.0,0.0,0,1,1,1,1,0,0,0,0,0,0,0
200215376,0,0.0,0.0,0,1.68655,-0.239288,1.43639,0.0,0.0,0.0,0.00300765,0.00930118,0.0421449,0.0,0.0,0.0,0.0,0.0,0.0,-1.43498,0.0,0.0,0.0,0.0,0.0,0,1,1,1,1,0,0,0,0,0,0,0
200220338,0,0.0,0.0,0,1.68657,-0.239241,1.4366,0.0,0.0,0.0,0.00353455,0.00945287,0.0419276,0.0,0.0,0.0,0.0,0.0,0.0,-1.43497,0.0,0.0,0.0,0.0,0.0,0,1,1,1,1,0,0,0,0,0,0,0
200225114,0,0.0,0.0,0,1.68658,-0.239188,1.4368,0.0,0.0,0.0,0.00222701,0.0104875,0.0398837,0.0,0.0,0.0,0.0,0.0,0.0,-1.43498,0.0,0.0,0.0,0.0,0.0,0,1,1,1,1,0,0,0,0,0,0,0
200230162,0,0.0,0.0,0,1.6866,-0.239143,1.43701,0.0,0.0,0.0,0.00287521,0.00908075,0.0427675,0.0,0.0,0.0,0.0,0.0,0.0,-1.43499,0.0,0.0,0.0,0.0,0.0,0,1,1,1,1,0,0,0,0,0,0,0
200235140,0,0.0,0.0,0,1.68662,-0.239099,1.43723,0.0,0.0,0.0,0.00436526,0.00863405,0.0430449,0.0,0.0,0.0,0.0,0.0,0.0,-1.43498,0.0,0.0,0.0,0.0,0.0,0,1,1,1,1,0,0,0,0,0,0,0
200240168,0,0.0,0.0,0,1.68664,-0.239052,1.43744,0.0,0.0,0.0,0.00464663,0.00952793,0.0416646,0.0,0.0,0.0,0.0,0.0,0.0,-1.43499,0.0,0.0,0.0,0.0,0.0,0,1,1,1,1,0,0,0,0,0,0,0
200245071,0,0.0,0.0,0,1.68666,-0.239001,1.43766,0.0,0.0,0.0,0.00398456,0.0100375,0.0435519,0.0,0.0,0.0,0.0,0.0,0.0,-1.43498,0.0,0.0,0.0,0.0,0.0,0,1,1,1,1,0,0,0,0,0,0,0
200250044,0,0.0,0.0,0,1.68668,-0.23895,1.43787,0.0,0.0,0.0,0.00336894,0.0102396,0.0419461,0.0,0.0,0.0,0.0,0.0,0.0,-1.43497,0.0,0.0,0.0,0.0,0.0,0,1,1,1,1,0,0,0,0,0,0,0
200255110,0,0.0,0.0,0,1.6867,-0.238896,1.43809,0.0,0.0,0.0,0.00459067,0.0109122,0.0447319,0.0,0.0,0.0,0.0,0.0,0.0,-1.43498,0.0,0.0,0.0,0.0,0.0,0,1,1,1,1,0,0,0,0,0,0,0
200260144,0,0.0,0.0,0,1.68673,-0.238843,1.43832,0.0,0.0,0.0,0.00563117,0.0105693,0.045181,0.0,0.0,0.0,0.0,0.0,0.0,-1.43496,0.0,0.0,0.0,0.0,0.0,0,1,1,1,1,0,0,0,0,0,0,0
200265117,0,0.0,0.0,0,1.68676,-0.238791,1.43853,0.0,0.0,0.0,0.00593801,0.0102781,0.0424777,0.0,0.0,0.0,0.0,0.0,0.0,-1.43494,0.0,0.0,0.0,0.0,0.0,0,1,1,1,1,0,0,0,0,0,0,0
200270108,0,0.0,0.0,0,1.68679,-0.238736,1.43876,0.0,0.0,0.0,0.00525377,0.0109294,0.0462564,0.0,0.0,0.0,0.0,0.0,0.0,-1.43496,0.0,0.0,0.0,0.0,0.0,0,1,1,1,1,0,0,0,0,0,0,0
200275144,0,0.0,0.0,0,1.68682,-0.238676,1.43899,0.0,0.0,0.0,0.00613576,0.0121354,0.0462552,0.0,0.0,0.0,0.0,0.0,0.0,-1.43497,0.0,0.0,0.0,0.0,0.0,0,1,1,1,1,0,0,0,0,0,0,0
200280161,0,0.0,0.0,0,1.68684,-0.238616,1.43922,0.0,0.0,0.0,0.00517059,0.0119044,0.0454512,0.0,0.0,0.0,0.0,0.0,0.0,-1.43496,0.0,0.0,0.0,0.0,0.0,0,1,1,1,1,0,0,0,0,0,0,0
200285143,0,0.0,0.0,0,1.68687,-0.238557,1.43945,0.0,0.0,0.0,0.0062608,0.0117853,0.0460764,0.0,0.0,0.0,0.0,0.0,0.0,-1.43496,0.0,0.0,0.0,0.0,0.0,0,1,1,1,1,0,0,0,0,0,0,0
200300162,0,0.0,0.0,0,1.68696,-0.238375,1.44018,0.0,0.0,0.0,0.00607702,0.0120382,0.0505765,0.0,0.0,0.0,0.0,0.0,0.0,-1.43498,0.0,0.0,0.0,0.0,0.0,0,1,1,1,1,0,0,0,0,0,0,0
200305553,0,0.0,0.0,0,1.68699,-0.23831,1.44042,0.0,0.0,0.0,0.00615013,0.0129166,0.0471556,0.0,0.0,0.0,0.0,0.0,0.0,-1.43498,0.0,0.0,0.0,0.0,0.0,0,1,1,1,1,0,0,0,0,0,0,0
200310283,0,0.0,0.0,0,1.68702,-0.238249,1.44067,0.0,0.0,0.0,0.00452639,0.0122543,0.0504082,0.0,0.0,0.0,0.0,0.0,0.0,-1.43498,0.0,0.0,0.0,0.0,0.0,0,1,1,1,1,0,0,0,0,0,0,0
200315200,0,0.0,0.0,0,1.68704,-0.238188,1.44094,0.0,0.0,0.0,0.0050808,0.0120591,0.0532662,0.0,0.0,0.0,0.0,0.0,0.0,-1.435,0.0,0.0,0.0,0.0,0.0,0,1,1,1,1,0,0,0,0,0,0,0
200320449,0,0.0,0.0,0,1.68707,-0.238121,1.44119,0.0,0.0,0.0,0.00591186,0.0135312,0.0493137,0.0,0.0,0.0,0.0,0.0,0.0,-1.43498,0.0,0.0,0.0,0.0,0.0,0,1,1,1,1,0,0,0,0,0,0,0
200325352,0,0.0,0.0,0,1.6871,-0.238055,1.44146,0.0,0.0,0.0,0.00587208,0.0131102,0.054159,0.0,0.0,0.0,0.0,0.0,0.0,-1.43497,0.0,0.0,0.0,0.0,0.0,0,1,1,1,1,0,0,0,0,0,0,0
200330298,0,0.0,0.0,0,1.6861,-0.238313,1.44116,0.0,0.0,0.0,0.00625362,0.01053,0.0579341,0.0,0.0,0.0,0.0,0.0,0.0,-1.43497,0.0,0.0,0.0,0.0,0.0,0,1,1,1,1,0,0,0,0,0,0,0
200335237,0,0.0,0.0,0,1.68613,-0.238253,1.44145,0.0,0.0,0.0,0.00529018,0.0118713,0.0580635,0.0,0.0,0.0,0.0,0.0,0.0,-1.43497,0.0,0.0,0.0,0.0,0.0,0,1,1,1,1,0,0,0,0,0,0,0
200340213,0,0.0,0.0,0,1.68615,-0.238193,1.44176,0.0,0.0,0.0,0.00475339,0.0119928,0.0611902,0.0,0.0,0.0,0.0,0.0,0.0,-1.43499,0.0,0.0,0.0,0.0,0.0,0,1,1,1,1,0,0,0,0,0,0,0
200345311,0,0.0,0.0,0,1.68618,-0.238132,1.44204,0.0,0.0,0.0,0.00494989,0.0123174,0.0576511,0.0,0.0,0.0,0.0,0.0,0.0,-1.43499,0.0,0.0,0.0,0.0,0.0,0,1,1,1,1,0,0,0,0,0,0,0
200350258,0,0.0,0.0,0,1.68621,-0.238077,1.44234,0.0,0.0,0.0,0.00553561,0.0108951,0.0599009,0.0,0.0,0.0,0.0,0.0,0.0,-1.43495,0.0,0.0,0.0,0.0,0.0,0,1,1,1,1,0,0,0,0,0,0,0
200355305,0,0.0,0.0,0,1.68624,-0.238024,1.44266,0.0,0.0,0.0,0.007113,0.0105598,0.0635132,0.0,0.0,0.0,0.0,0.0,0.0,-1.43495,0.0,0.0,0.0,0.0,0.0,0,1,1,1,1,0,0,0,0,0,0,0
200360298,0,0.0,0.0,0,1.68627,-0.237959,1.44296,0.0,0.0,0.0,0.00557192,0.0131101,0.0588541,0.0,0.0,0.0,0.0,0.0,0.0,-1.43495,0.0,0.0,0.0,0.0,0.0,0,1,1,1,1,0,0,0,0,0,0,0
200365330,0,0.0,0.0,0,1.6863,-0.237896,1.44327,0.0,0.0,0.0,0.00545952,0.0125332,0.0629904,0.0,0.0,0.0,0.0,0.0,0.0,-1.43495,0.0,0.0,0.0,0.0,0.0,0,1,1,1,1,0,0,0,0,0,0,0
200370331,0,0.0,0.0,0,1.68633,-0.237836,1.4436,0.0,0.0,0.0,0.00739036,0.0119723,0.0650534,0.0,0.0,0.0,0.0,0.0,0.0,-1.43497,0.0,0.0,0.0,0.0,0.0,0,1,1,1,1,0,0,0,0,0,0,0
200375259,0,0.0,0.0,0,1.68637,-0.237769,1.44389,0.0,0.0,0.0,0.00824064,0.0133836,0.058184,0.0,0.0,0.0,0.0,0.0,0.0,-1.43495,0.0,0.0,0.0,0.0,0.0,0,1,1,1,1,0,0,0,0,0,0,0
200380406,0,0.0,0.0,0,1.68641,-0.237711,1.44423,0.0,0.0,0.0,0.00705456,0.0116037,0.0669733,0.0,0.0,0.0,0.0,0.0,0.0,-1.43494,0.0,0.0,0.0,0.0,0.0,0,1,1,1,1,0,0,0,0,0,0,0
200385373,0,0.0,0.0,0,1.68645,-0.237653,1.44455,0.0,0.0,0.0,0.00762872,0.0114794,0.0644358,0.0,0.0,0.0,0.0,0.0,0.0,-1.43496,0.0,0.0,0.0,0.0,0.0,0,1,1,1,1,0,0,0,0,0,0,0
200390435,0,0.0,0.0,0,1.68648,-0.237587,1.44485,0.0,0.0,0.0,0.00707175,0.0131859,0.0610019,0.0,0.0,0.0,0.0,0.0,0.0,-1.43496,0.0,0.0,0.0,0.0,0.0,0,1,1,1,1,0,0,0,0,0,0,0
200395288,0,0.0,0.0,0,1.68652,-0.237525,1.4452,0.0,0.0,0.0,0.00735319,0.0123178,0.0682852,0.0,0.0,0.0,0.0,0.0,0.0,-1.43497,0.0,0.0,0.0,0.0,0.0,0,1,1,1,1,0,0,0,0,0,0,0
200400320,0,0.0,0.0,0,1.68656,-0.237457,1.44551,0.0,0.0,0.0,0.00854642,0.0135661,0.0629708,0.0,0.0,0.0,0.0,0.0,0.0,-1.43496,0.0,0.0,0.0,0.0,0.0,0,1,1,1,1,0,0,0,0,0,0,0
200405711,0,0.0,0.0,0,1.6866,-0.237386,1.44583,0.0,0.0,0.0,0.00662343,0.0142305,0.0636541,0.0,0.0,0.0,0.0,0.0,0.0,-1.43492,0.0,0.0,0.0,0.0,0.0,0,1,1,1,1,0,0,0,0,0,0,0
200410341,0,0.0,0.0,0,1.68663,-0.237319,1.44619,0.0,0.0,0.0,0.00744462,0.0135067,0.0712673,0.0,0.0,0.0,0.0,0.0,0.0,-1.43494,0.0,0.0,0.0,0.0,0.0,0,1,1,1,1,0,0,0,0,0,0,0
200415361,0,0.0,0.0,0,1.68668,-0.237237,1.4465,0.0,0.0,0.0,0.00871122,0.0163003,0.0630991,0.0,0.0,0.0,0.0,0.0,0.0,-1.43496,0.0,0.0,0.0,0.0,0.0,0,1,1,1,1,0,0,0,0,0,0,0
200420558,0,0.0,0.0,0,1.68672,-0.237163,1.44683,0.0,0.0,0.0,0.00841292,0.0147067,0.0653108,0.0,0.0,0.0,0.0,0.0,0.0,-1.43494,0.0,0.0,0.0,0.0,0.0,0,1,1,1,1,0,0,0,0,0,0,0
200425399,0,0.0,0.0,0,1.68676,-0.237096,1.44719,0.0,0.0,0.0,0.00878347,0.0134663,0.0729456,0.0,0.0,0.0,0.0,0.0,0.0,-1.43494,0.0,0.0,0.0,0.0,0.0,0,1,1,1,1,0,0,0,0,0,0,0
200435472,0,0.0,0.0,0,1.68757,-0.235256,1.44767,0.0,0.0,0.0,0.00966897,0.0171797,0.072578,0.0,0.0,0.0,0.0,0.0,0.0,-1.43509,0.0,0.0,0.0,0.0,0.0,0,1,1,1,1,0,0,0,0,0,0,0
200440350,0,0.0,0.0,0,1.68763,-0.235178,1.44805,0.0,0.0,0.0,0.0108372,0.0155352,0.0755674,0.0,0.0,0.0,0.0,0.0,0.0,-1.43509,0.0,0.0,0.0,0.0,0.0,0,1,1,1,1,0,0,0,0,0,0,0
200445429,0,0.0,0.0,0,1.68768,-0.235086,1.44839,0.0,0.0,0.0,0.0100635,0.0184094,0.0682847,0.0,0.0,0.0,0.0,0.0,0.0,-1.4351,0.0,0.0,0.0,0.0,0.0,0,1,1,1,1,0,0,0,0,0,0,0
200450385,0,0.0,0.0,0,1.68773,-0.234997,1.44876,0.0,0.0,0.0,0.00986466,0.0177284,0.0747723,0.0,0.0,0.0,0.0,0.0,0.0,-1.43511,0.0,0.0,0.0,0.0,0.0,0,1,1,1,1,0,0,0,0,0,0,0
200455424,0,0.0,0.0,0,1.68778,-0.234913,1.44914,0.0,0.0,0.0,0.0108675,0.0168603,0.0761125,0.0,0.0,0.0,0.0,0.0,0.0,-1.43511,0.0,0.0,0.0,0.0,0.0,0,1,1,1,1,0,0,0,0,0,0,0
200460476,0,0.0,0.0,0,1.68783,-0.23482,1.4495,0.0,0.0,0.0,0.00975909,0.0185884,0.070356,0.0,0.0,0.0,0.0,0.0,0.0,-1.43512,0.0,0.0,0.0,0.0,0.0,0,1,1,1,1,0,0,0,0,0,0,0
200465446,0,0.0,0.0,0,1.68789,-0.234731,1.44988,0.0,0.0,0.0,0.0112944,0.0177879,0.0759944,0.0,0.0,0.0,0.0,0.0,0.0,-1.43511,0.0,0.0,0.0,0.0,0.0,0,1,1,1,1,0,0,0,0,0,0,0
200470628,0,0.0,0.0,0,1.68794,-0.234638,1.45026,0.0,0.0,0.0,0.0114877,0.018398,0.0769497,0.0,0.0,0.0,0.0,0.0,0.0,-1.4351,0.0,0.0,0.0,0.0,0.0,0,1,1,1,1,0,0,0,0,0,0,0
200475442,0,0.0,0.0,0,1.688,-0.234539,1.45064,0.0,0.0,0.0,0.0111279,0.0198724,0.0749551,0.0,0.0,0.0,0.0,0.0,0.0,-1.43511,0.0,0.0,0.0,0.0,0.0,0,1,1,1,1,0,0,0,0,0,0,0
200480542,0,0.0,0.0,0,1.68806,-0.234448,1.45103,0.0,0.0,0.0,0.0121373,0.0182249,0.0781366,0.0,0.0,0.0,0.0,0.0,0.0,-1.43511,0.0,0.0,0.0,0.0,0.0,0,1,1,1,1,0,0,0,0,0,0,0
200485538,0,0.0,0.0,0,1.68813,-0.234354,1.4514,0.0,0.0,0.0,0.0130512,0.0187184,0.0733745,0.0,0.0,0.0,0.0,0.0,0.0,-1.4351,0.0,0.0,0.0,0.0,0.0,0,1,1,1,1,0,0,0,0,0,0,0
200490534,0,0.0,0.0,0,1.68819,-0.234255,1.45179,0.0,0.0,0.0,0.0117263,0.0197585,0.0789067,0.0,0.0,0.0,0.0,0.0,0.0,-1.43512,0.0,0.0,0.0,0.0,0.0,0,1,1,1,1,0,0,0,0,0,0,0
200495505,0,0.0,0.0,0,1.68825,-0.234161,1.4522,0.0,0.0,0.0,0.013734,0.0188369,0.080992,0.0,0.0,0.0,0.0,0.0,0.0,-1.43512,0.0,0.0,0.0,0.0,0.0,0,1,1,1,1,0,0,0,0,0,0,0
200500499,0,0.0,0.0,0,1.68832,-0.234062,1.45258,0.0,0.0,0.0,0.0137434,0.0197496,0.0753449,0.0,0.0,0.0,0.0,0.0,0.0,-1.43511,0.0,0.0,0.0,0.0,0.0,0,1,1,1,1,0,0,0,0,0,0,0
200505595,0,0.0,0.0,0,1.68839,-0.233963,1.45298,0.0,0.0,0.0,0.0126275,0.0197728,0.0804678,0.0,0.0,0.0,0.0,0.0,0.0,-1.43513,0.0,0.0,0.0,0.0,0.0,0,1,1,1,1,0,0,0,0,0,0,0
200510488,0,0.0,0.0,0,1.68846,-0.233864,1.45339,0.0,0.0,0.0,0.0141096,0.0196272,0.0817331,0.0,0.0,0.0,0.0,0.0,0.0,-1.43513,0.0,0.0,0.0,0.0,0.0,0,1,1,1,1,0,0,0,0,0,0,0
200515519,0,0.0,0.0,0,1.68852,-0.233762,1.45378,0.0,0.0,0.0,0.0129873,0.0203481,0.0783268,0.0,0.0,0.0,0.0,0.0,0.0,-1.43512,0.0,0.0,0.0,0.0,0.0,0,1,1,1,1,0,0,0,0,0,0,0
200521142,0,0.0,0.0,0,1.68859,-0.233663,1.45419,0.0,0.0,0.0,0.0129016,0.0198602,0.0825172,0.0,0.0,0.0,0.0,0.0,0.0,-1.43514,0.0,0.0,0.0,0.0,0.0,0,1,1,1,1,0,0,0,0,0,0,0
200525567,0,0.0,0.0,0,1.68866,-0.233562,1.45461,0.0,0.0,0.0,0.0138031,0.0202039,0.0828764,0.0,0.0,0.0,0.0,0.0,0.0,-1.43513,0.0,0.0,0.0,0.0,0.0,0,1,1,1,1,0,0,0,0,0,0,0
200530677,0,0.0,0.0,0,1.68872,-0.233454,1.45501,0.0,0.0,0.0,0.0134745,0.0214403,0.0795933,0.0,0.0,0.0,0.0,0.0,0.0,-1.43513,0.0,0.0,0.0,0.0,0.0,0,1,1,1,1,0,0,0,0,0,0,0
200537152,0,0.0,0.0,0,1.69053,-0.23316,1.45189,0.0,0.0,0.0,0.0162298,0.0199337,0.0856398,0.0,0.0,0.0,0.0,0.0,0.0,-1.43517,0.0,0.0,0.0,0.0,0.0,0,1,1,1,1,0,0,0,0,0,0,0
200545623,0,0.0,0.0,0,1.6907,-0.232962,1.45271,0.0,0.0,0.0,0.0173613,0.0198676,0.0824491,0.0,0.0,0.0,0.0,0.0,0.0,-1.43518,0.0,0.0,0.0,0.0,0.0,0,1,1,1,1,0,0,0,0,0,0,0
200550625,0,0.0,0.0,0,1.69079,-0.232864,1.45314,0.0,0.0,0.0,0.0169474,0.0195328,0.086118,0.0,0.0,0.0,0.0,0.0,0.0,-1.43517,0.0,0.0,0.0,0.0,0.0,0,1,1,1,1,0,0,0,0,0,0,0
200555573,0,0.0,0.0,0,1.69088,-0.232761,1.45356,0.0,0.0,0.0,0.0175113,0.0205073,0.0827424,0.0,0.0,0.0,0.0,0.0,0.0,-1.43516,0.0,0.0,0.0,0.0,0.0,0,1,1,1,1,0,0,0,0,0,0,0
200560570,0,0.0,0.0,0,1.69096,-0.232654,1.45399,0.0,0.0,0.0,0.0173442,0.0214046,0.0855227,0.0,0.0,0.0,0.0,0.0,0.0,-1.43517,0.0,0.0,0.0,0.0,0.0,0,1,1,1,1,0,0,0,0,0,0,0
200565621,0,0.0,0.0,0,1.69105,-0.232546,1.45441,0.0,0.0,0.0,0.0181148,0.0216999,0.0856619,0.0,0.0,0.0,0.0,0.0,0.0,-1.43517,0.0,0.0,0.0,0.0,0.0,0,1,1,1,1,0,0,0,0,0,0,0
200570566,0,0.0,0.0,0,1.69114,-0.232434,1.45483,0.0,0.0,0.0,0.0177848,0.0222364,0.0836664,0.0,0.0,0.0,0.0,0.0,0.0,-1.43518,0.0,0.0,0.0,0.0,0.0,0,1,1,1,1,0,0,0,0,0,0,0
200575637,0,0.0,0.0,0,1.69124,-0.232326,1.45527,0.0,0.0,0.0,0.0183194,0.0216749,0.0862965,0.0,0.0,0.0,0.0,0.0,0.0,-1.4352,0.0,0.0,0.0,0.0,0.0,0,1,1,1,1,0,0,0,0,0,0,0
200580650,0,0.0,0.0,0,1.69132,-0.232215,1.45571,0.0,0.0,0.0,0.0176691,0.0221705,0.0877256,0.0,0.0,0.0,0.0,0.0,0.0,-1.4352,0.0,0.0,0.0,0.0,0.0,0,1,1,1,1,0,0,0,0,0,0,0
200585653,0,0.0,0.0,0,1.69142,-0.232103,1.45613,0.0,0.0,0.0,0.0184175,0.0223094,0.0851758,0.0,0.0,0.0,0.0,0.0,0.0,-1.4352,0.0,0.0,0.0,0.0,0.0,0,1,1,1,1,0,0,0,0,0,0,0
200595568,0,0.0,0.0,0,1.6916,-0.231874,1.457,0.0,0.0,0.0,0.0181541,0.022829,0.0855838,0.0,0.0,0.0,0.0,0.0,0.0,-1.43522,0.0,0.0,0.0,0.0,0.0,0,1,1,1,1,0,0,0,0,0,0,0
200600674,0,0.0,0.0,0,1.69169,-0.231759,1.45744,0.0,0.0,0.0,0.0187993,0.0229896,0.0878436,0.0,0.0,0.0,0.0,0.0,0.0,-1.43522,0.0,0.0,0.0,0.0,0.0,0,1,1,1,1,0,0,0,0,0,0,0
200605727,0,0.0,0.0,0,1.69179,-0.231641,1.45789,0.0,0.0,0.0,0.0193472,0.0234918,0.0893435,0.0,0.0,0.0,0.0,0.0,0.0,-1.43524,0.0,0.0,0.0,0.0,0.0,0,1,1,1,1,0,0,0,0,0,0,0
200610736,0,0.0,0.0,0,1.69188,-0.231521,1.45832,0.0,0.0,0.0,0.018597,0.0239869,0.0855279,0.0,0.0,0.0,0.0,0.0,0.0,-1.43524,0.0,0.0,0.0,0.0,0.0,0,1,1,1,1,0,0,0,0,0,0,0
200615896,0,0.0,0.0,0,1.69197,-0.231404,1.45877,0.0,0.0,0.0,0.0183712,0.0233703,0.0908267,0.0,0.0,0.0,0.0,0.0,0.0,-1.43524,0.0,0.0,0.0,0.0,0.0,0,1,1,1,1,0,0,0,0,0,0,0
200620977,0,0.0,0.0,0,1.69207,-0.231282,1.45922,0.0,0.0,0.0,0.0193718,0.0242887,0.088966,0.0,0.0,0.0,0.0,0.0,0.0,-1.43525,0.0,0.0,0.0,0.0,0.0,0,1,1,1,1,0,0,0,0,0,0,0
200625944,0,0.0,0.0,0,1.69216,-0.231158,1.45965,0.0,0.0,0.0,0.018206,0.0248116,0.087419,0.0,0.0,0.0,0.0,0.0,0.0,-1.43523,0.0,0.0,0.0,0.0,0.0,0,1,1,1,1,0,0,0,0,0,0,0
200630745,0,0.0,0.0,0,1.69226,-0.231038,1.46011,0.0,0.0,0.0,0.018912,0.0239707,0.0910612,0.0,0.0,0.0,0.0,0.0,0.0,-1.43524,0.0,0.0,0.0,0.0,0.0,0,1,1,1,1,0,0,0,0,0,0,0
200640989,0,0.0,0.0,0,1.69191,-0.233119,1.45719,0.0,0.0,0.0,0.0208426,0.0195863,0.0955194,0.0,0.0,0.0,0.0,0.0,0.0,-1.43504,0.0,0.0,0.0,0.0,0.0,0,1,1,1,1,0,0,0,0,0,0,0
200645702,0,0.0,0.0,0,1.69201,-0.233024,1.45769,0.0,0.0,0.0,0.0210148,0.0190457,0.0986381,0.0,0.0,0.0,0.0,0.0,0.0,-1.43505,0.0,0.0,0.0,0.0,0.0,0,1,1,1,1,0,0,0,0,0,0,0
200650810,0,0.0,0.0,0,1.69212,-0.232921,1.45816,0.0,0.0,0.0,0.0209621,0.0205765,0.0940545,0.0,0.0,0.0,0.0,0.0,0.0,-1.43505,0.0,0.0,0.0,0.0,0.0,0,1,1,1,1,0,0,0,0,0,0,0
200655862,0,0.0,0.0,0,1.69222,-0.232818,1.45864,0.0,0.0,0.0,0.0208321,0.0205411,0.0974709,0.0,0.0,0.0,0.0,0.0,0.0,-1.43503,0.0,0.0,0.0,0.0,0.0,0,1,1,1,1,0,0,0,0,0,0,0
200660741,0,0.0,0.0,0,1.69233,-0.232716,1.45915,0.0,0.0,0.0,0.0213487,0.020213,0.10061,0.0,0.0,0.0,0.0,0.0,0.0,-1.43505,0.0,0.0,0.0,0.0,0.0,0,1,1,1,1,0,0,0,0,0,0,0
200665771,0,0.0,0.0,0,1.69243,-0.232604,1.45962,0.0,0.0,0.0,0.0209415,0.0224822,0.0935353,0.0,0.0,0.0,0.0,0.0,0.0,-1.43504,0.0,0.0,0.0,0.0,0.0,0,1,1,1,1,0,0,0,0,0,0,0
200670786,0,0.0,0.0,0,1.69253,-0.232497,1.46012,0.0,0.0,0.0,0.0194282,0.0214349,0.100116,0.0,0.0,0.0,0.0,0.0,0.0,-1.43503,0.0,0.0,0.0,0.0,0.0,0,1,1,1,1,0,0,0,0,0,0,0
200675954,0,0.0,0.0,0,1.69264,-0.232391,1.46062,0.0,0.0,0.0,0.0214033,0.0211342,0.100154,0.0,0.0,0.0,0.0,0.0,0.0,-1.43505,0.0,0.0,0.0,0.0,0.0,0,1,1,1,1,0,0,0,0,0,0,0
200681184,0,0.0,0.0,0,1.69274,-0.232274,1.46111,0.0,0.0,0.0,0.0212914,0.0233638,0.0970555,0.0,0.0,0.0,0.0,0.0,0.0,-1.43505,0.0,0.0,0.0,0.0,0.0,0,1,1,1,1,0,0,0,0,0,0,0
200685856,0,0.0,0.0,0,1.69285,-0.232168,1.46163,0.0,0.0,0.0,0.0214053,0.0211451,0.10398,0.0,0.0,0.0,0.0,0.0,0.0,-1.43506,0.0,0.0,0.0,0.0,0.0,0,1,1,1,1,0,0,0,0,0,0,0
200700876,0,0.0,0.0,0,1.69318,-0.231839,1.46315,0.0,0.0,0.0,0.0230028,0.0211847,0.107572,0.0,0.0,0.0,0.0,0.0,0.0,-1.43507,0.0,0.0,0.0,0.0,0.0,0,1,1,1,1,0,0,0,0,0,0,0
200705793,0,0.0,0.0,0,1.6933,-0.231726,1.46365,0.0,0.0,0.0,0.0240496,0.0224644,0.100168,0.0,0.0,0.0,0.0,0.0,0.0,-1.43507,0.0,0.0,0.0,0.0,0.0,0,1,1,1,1,0,0,0,0,0,0,0
200710856,0,0.0,0.0,0,1.69341,-0.231607,1.46415,0.0,0.0,0.0,0.0211132,0.0238894,0.0992857,0.0,0.0,0.0,0.0,0.0,0.0,-1.43507,0.0,0.0,0.0,0.0,0.0,0,1,1,1,1,0,0,0,0,0,0,0
200715869,0,0.0,0.0,0,1.69352,-0.231496,1.4647,0.0,0.0,0.0,0.0216477,0.0221808,0.110701,0.0,0.0,0.0,0.0,0.0,0.0,-1.43507,0.0,0.0,0.0,0.0,0.0,0,1,1,1,1,0,0,0,0,0,0,0
200721082,0,0.0,0.0,0,1.69363,-0.231374,1.46521,0.0,0.0,0.0,0.0224946,0.0242139,0.101433,0.0,0.0,0.0,0.0,0.0,0.0,-1.43507,0.0,0.0,0.0,0.0,0.0,0,1,1,1,1,0,0,0,0,0,0,0
200725877,0,0.0,0.0,0,1.69373,-0.23125,1.46573,0.0,0.0,0.0,0.0200525,0.0248066,0.102613,0.0,0.0,0.0,0.0,0.0,0.0,-1.43505,0.0,0.0,0.0,0.0,0.0,0,1,1,1,1,0,0,0,0,0,0,0
200730860,0,0.0,0.0,0,1.69411,-0.229294,1.4652,0.0,0.0,0.0,0.0233788,0.0220393,0.115946,0.0,0.0,0.0,0.0,0.0,0.0,-1.43509,0.0,0.0,0.0,0.0,0.0,0,1,1,1,1,0,0,0,0,0,0,0
200735908,0,0.0,0.0,0,1.69423,-0.22917,1.46575,0.0,0.0,0.0,0.0241509,0.0248275,0.110843,0.0,0.0,0.0,0.0,0.0,0.0,-1.43509,0.0,0.0,0.0,0.0,0.0,0,1,1,1,1,0,0,0,0,0,0,0
200740865,0,0.0,0.0,0,1.69434,-0.229044,1.46632,0.0,0.0,0.0,0.0214205,0.0250127,0.114013,0.0,0.0,0.0,0.0,0.0,0.0,-1.4351,0.0,0.0,0.0,0.0,0.0,0,1,1,1,1,0,0,0,0,0,0,0
200746002,0,0.0,0.0,0,1.69445,-0.228927,1.46691,0.0,0.0,0.0,0.0227638,0.0235412,0.11698,0.0,0.0,0.0,0.0,0.0,0.0,-1.43511,0.0,0.0,0.0,0.0,0.0,0,1,1,1,1,0,0,0,0,0,0,0
200750884,0,0.0,0.0,0,1.69456,-0.2288,1.46747,0.0,0.0,0.0,0.0224315,0.0252449,0.111791,0.0,0.0,0.0,0.0,0.0,0.0,-1.43512,0.0,0.0,0.0,0.0,0.0,0,1,1,1,1,0,0,0,0,0,0,0
200755850,0,0.0,0.0,0,1.69468,-0.228676,1.46806,0.0,0.0,0.0,0.0226894,0.0248804,0.11737,0.0,0.0,0.0,0.0,0.0,0.0,-1.43511,0.0,0.0,0.0,0.0,0.0,0,1,1,1,1,0,0,0,0,0,0,0
200760955,0,0.0,0.0,0,1.6948,-0.228555,1.46866,0.0,0.0,0.0,0.0243106,0.0240927,0.119978,0.0,0.0,0.0,0.0,0.0,0.0,-1.43511,0.0,0.0,0.0,0.0,0.0,0,1,1,1,1,0,0,0,0,0,0,0
200766055,0,0.0,0.0,0,1.69492,-0.228426,1.46922,0.0,0.0,0.0,0.0241607,0.0256429,0.112987,0.0,0.0,0.0,0.0,0.0,0.0,-1.43513,0.0,0.0,0.0,0.0,0.0,0,1,1,1,1,0,0,0,0,0,0,0
200770990,0,0.0,0.0,0,1.69505,-0.228298,1.46983,0.0,0.0,0.0,0.02497,0.0255747,0.12208,0.0,0.0,0.0,0.0,0.0,0.0,-1.43512,0.0,0.0,0.0,0.0,0.0,0,1,1,1,1,0,0,0,0,0,0,0
200776034,0,0.0,0.0,0,1.69517,-0.228169,1.47043,0.0,0.0,0.0,0.0247834,0.025771,0.119522,0.0,0.0,0.0,0.0,0.0,0.0,-1.43511,0.0,0.0,0.0,0.0,0.0,0,1,1,1,1,0,0,0,0,0,0,0
200780957,0,0.0,0.0,0,1.69529,-0.228034,1.47102,0.0,0.0,0.0,0.0233587,0.0270656,0.117625,0.0,0.0,0.0,0.0,0.0,0.0,-1.43511,0.0,0.0,0.0,0.0,0.0,0,1,1,1,1,0,0,0,0,0,0,0
200786008,0,0.0,0.0,0,1.69541,-0.227909,1.47165,0.0,0.0,0.0,0.0238378,0.0248901,0.124833,0.0,0.0,0.0,0.0,0.0,0.0,-1.4351,0.0,0.0,0.0,0.0,0.0,0,1,1,1,1,0,0,0,0,0,0,0
200791391,0,0.0,0.0,0,1.69553,-0.227779,1.47225,0.0,0.0,0.0,0.0244906,0.0259346,0.119974,0.0,0.0,0.0,0.0,0.0,0.0,-1.43508,0.0,0.0,0.0,0.0,0.0,0,1,1,1,1,0,0,0,0,0,0,0
200795948,0,0.0,0.0,0,1.69565,-0.227639,1.47286,0.0,0.0,0.0,0.0233958,0.0279596,0.122253,0.0,0.0,0.0,0.0,0.0,0.0,-1.43509,0.0,0.0,0.0,0.0,0.0,0,1,1,1,1,0,0,0,0,0,0,0
200800967,0,0.0,0.0,0,1.69577,-0.227504,1.47349,0.0,0.0,0.0,0.024699,0.0270332,0.126157,0.0,0.0,0.0,0.0,0.0,0.0,-1.43509,0.0,0.0,0.0,0.0,0.0,0,1,1,1,1,0,0,0,0,0,0,0
200805981,0,0.0,0.0,0,1.69589,-0.227368,1.4741,0.0,0.0,0.0,0.024057,0.0270229,0.121406,0.0,0.0,0.0,0.0,0.0,0.0,-1.43507,0.0,0.0,0.0,0.0,0.0,0,1,1,1,1,0,0,0,0,0,0,0
200811269,0,0.0,0.0,0,1.69601,-0.227231,1.47473,0.0,0.0,0.0,0.0238581,0.0274449,0.125158,0.0,0.0,0.0,0.0,0.0,0.0,-1.43508,0.0,0.0,0.0,0.0,0.0,0,1,1,1,1,0,0,0,0,0,0,0
200816019,0,0.0,0.0,0,1.69613,-0.227092,1.47537,0.0,0.0,0.0,0.0250704,0.0278379,0.128686,0.0,0.0,0.0,0.0,0.0,0.0,-1.43508,0.0,0.0,0.0,0.0,0.0,0,1,1,1,1,0,0,0,0,0,0,0
200821269,0,0.0,0.0,0,1.69626,-0.226951,1.47599,0.0,0.0,0.0,0.0251958,0.0280783,0.123298,0.0,0.0,0.0,0.0,0.0,0.0,-1.43508,0.0,0.0,0.0,0.0,0.0,0,1,1,1,1,0,0,0,0,0,0,0
200826035,0,0.0,0.0,0,1.69639,-0.226813,1.47664,0.0,0.0,0.0,0.0247947,0.0275112,0.129707,0.0,0.0,0.0,0.0,0.0,0.0,-1.43509,0.0,0.0,0.0,0.0,0.0,0,1,1,1,1,0,0,0,0,0,0,0
200831068,0,0.0,0.0,0,1.6965,-0.22711,1.47177,0.0,0.0,0.0,0.0286077,0.0254275,0.121712,0.0,0.0,0.0,0.0,0.0,0.0,-1.43511,0.0,0.0,0.0,0.0,0.0,0,1,1,1,1,0,0,0,0,0,0,0
200835965,0,0.0,0.0,0,1.69663,-0.226977,1.47237,0.0,0.0,0.0,0.0274215,0.0266955,0.118106,0.0,0.0,0.0,0.0,0.0,0.0,-1.4351,0.0,0.0,0.0,0.0,0.0,0,1,1,1,1,0,0,0,0,0,0,0
200841104,0,0.0,0.0,0,1.69677,-0.226844,1.47299,0.0,0.0,0.0,0.0275828,0.0264265,0.124903,0.0,0.0,0.0,0.0,0.0,0.0,-1.43512,0.0,0.0,0.0,0.0,0.0,0,1,1,1,1,0,0,0,0,0,0,0
200846355,0,0.0,0.0,0,1.69692,-0.22671,1.47361,0.0,0.0,0.0,0.0298588,0.0268676,0.123537,0.0,0.0,0.0,0.0,0.0,0.0,-1.43511,0.0,0.0,0.0,0.0,0.0,0,1,1,1,1,0,0,0,0,0,0,0
200851123,0,0.0,0.0,0,1.69706,-0.226569,1.47422,0.0,0.0,0.0,0.0282321,0.0280474,0.122685,0.0,0.0,0.0,0.0,0.0,0.0,-1.43511,0.0,0.0,0.0,0.0,0.0,0,1,1,1,1,0,0,0,0,0,0,0
200856152,0,0.0,0.0,0,1.6972,-0.226428,1.47485,0.0,0.0,0.0,0.0281526,0.0281371,0.124881,0.0,0.0,0.0,0.0,0.0,0.0,-1.43512,0.0,0.0,0.0,0.0,0.0,0,1,1,1,1,0,0,0,0,0,0,0
200861191,0,0.0,0.0,0,1.69735,-0.226287,1.47548,0.0,0.0,0.0,0.0291041,0.0283257,0.126613,0.0,0.0,0.0,0.0,0.0,0.0,-1.4351,0.0,0.0,0.0,0.0,0.0,0,1,1,1,1,0,0,0,0,0,0,0
200866077,0,0.0,0.0,0,1.6975,-0.226148,1.47612,0.0,0.0,0.0,0.0300477,0.0277611,0.126469,0.0,0.0,0.0,0.0,0.0,0.0,-1.4351,0.0,0.0,0.0,0.0,0.0,0,1,1,1,1,0,0,0,0,0,0,0
200871230,0,0.0,0.0,0,1.69765,-0.226005,1.47676,0.0,0.0,0.0,0.02979,0.0285599,0.127421,0.0,0.0,0.0,0.0,0.0,0.0,-1.4351,0.0,0.0,0.0,0.0,0.0,0,1,1,1,1,0,0,0,0,0,0,0
200876064,0,0.0,0.0,0,1.6978,-0.225859,1.47739,0.0,0.0,0.0,0.0294468,0.0289879,0.127484,0.0,0.0,0.0,0.0,0.0,0.0,-1.43511,0.0,0.0,0.0,0.0,0.0,0,1,1,1,1,0,0,0,0,0,0,0
200881161,0,0.0,0.0,0,1.69795,-0.225713,1.47804,0.0,0.0,0.0,0.0301941,0.0292161,0.129808,0.0,0.0,0.0,0.0,0.0,0.0,-1.43513,0.0,0.0,0.0,0.0,0.0,0,1,1,1,1,0,0,0,0,0,0,0
200886089,0,0.0,0.0,0,1.69809,-0.225565,1.4787,0.0,0.0,0.0,0.0290447,0.0294626,0.129869,0.0,0.0,0.0,0.0,0.0,0.0,-1.43512,0.0,0.0,0.0,0.0,0.0,0,1,1,1,1,0,0,0,0,0,0,0
200896526,0,0.0,0.0,0,1.69838,-0.225262,1.48,0.0,0.0,0.0,0.0286558,0.0307495,0.131284,0.0,0.0,0.0,0.0,0.0,0.0,-1.43513,0.0,0.0,0.0,0.0,0.0,0,1,1,1,1,0,0,0,0,0,0,0
200901149,0,0.0,0.0,0,1.69852,-0.225107,1.48065,0.0,0.0,0.0,0.0283643,0.0310584,0.129591,0.0,0.0,0.0,0.0,0.0,0.0,-1.43513,0.0,0.0,0.0,0.0,0.0,0,1,1,1,1,0,0,0,0,0,0,0
200911819,0,0.0,0.0,0,1.69879,-0.224801,1.48197,0.0,0.0,0.0,0.0268608,0.0312139,0.129391,0.0,0.0,0.0,0.0,0.0,0.0,-1.43514,0.0,0.0,0.0,0.0,0.0,0,1,1,1,1,0,0,0,0,0,0,0
200916358,0,0.0,0.0,0,1.69893,-0.22464,1.48264,0.0,0.0,0.0,0.0268647,0.0322501,0.132839,0.0,0.0,0.0,0.0,0.0,0.0,-1.43513,0.0,0.0,0.0,0.0,0.0,0,1,1,1,1,0,0,0,0,0,0,0
200921565,0,0.0,0.0,0,1.69907,-0.224493,1.48333,0.0,0.0,0.0,0.0274835,0.0293574,0.138425,0.0,0.0,0.0,0.0,0.0,0.0,-1.43512,0.0,0.0,0.0,0.0,0.0,0,1,1,1,1,0,0,0,0,0,0,0
200926212,0,0.0,0.0,0,1.6992,-0.224335,1.484,0.0,0.0,0.0,0.0275206,0.0314754,0.132799,0.0,0.0,0.0,0.0,0.0,0.0,-1.43513,0.0,0.0,0.0,0.0,0.0,0,1,1,1,1,0,0,0,0,0,0,0
200931201,0,0.0,0.0,0,1.69934,-0.224173,1.48467,0.0,0.0,0.0,0.0262714,0.0323738,0.13434,0.0,0.0,0.0,0.0,0.0,0.0,-1.43513,0.0,0.0,0.0,0.0,0.0,0,1,1,1,1,0,0,0,0,0,0,0
200936271,0,0.0,0.0,0,1.69947,-0.224021,1.48537,0.0,0.0,0.0,0.027766,0.0303831,0.140275,0.0,0.0,0.0,0.0,0.0,0.0,-1.43513,0.0,0.0,0.0,0.0,0.0,0,1,1,1,1,0,0,0,0,0,0,0
200941313,0,0.0,0.0,0,1.69962,-0.223861,1.48606,0.0,0.0,0.0,0.028711,0.0318871,0.136188,0.0,0.0,0.0,0.0,0.0,0.0,-1.43513,0.0,0.0,0.0,0.0,0.0,0,1,1,1,1,0,0,0,0,0,0,0
200946264,0,0.0,0.0,0,1.69976,-0.2237,1.48674,0.0,0.0,0.0,0.0283229,0.0320825,0.136368,0.0,0.0,0.0,0.0,0.0,0.0,-1.43512,0.0,0.0,0.0,0.0,0.0,0,1,1,1,1,0,0,0,0,0,0,0
200951781,0,0.0,0.0,0,1.69721,-0.225637,1.47554,0.0,0.0,0.0,0.0245943,0.0278327,0.129264,0.0,0.0,0.0,0.0,0.0,0.0,-1.43509,0.0,0.0,0.0,0.0,0.0,0,1,1,1,1,0,0,0,0,0,0,0
200961321,0,0.0,0.0,0,1.69745,-0.225343,1.4768,0.0,0.0,0.0,0.0230669,0.0289595,0.129752,0.0,0.0,0.0,0.0,0.0,0.0,-1.43509,0.0,0.0,0.0,0.0,0.0,0,1,1,1,1,0,0,0,0,0,0,0
200966257,0,0.0,0.0,0,1.69756,-0.225204,1.47746,0.0,0.0,0.0,0.0232181,0.0278422,0.131101,0.0,0.0,0.0,0.0,0.0,0.0,-1.43509,0.0,0.0,0.0,0.0,0.0,0,1,1,1,1,0,0,0,0,0,0,0
200971291,0,0.0,0.0,0,1.69768,-0.225054,1.47808,0.0,0.0,0.0,0.0241672,0.0299847,0.124447,0.0,0.0,0.0,0.0,0.0,0.0,-1.43507,0.0,0.0,0.0,0.0,0.0,0,1,1,1,1,0,0,0,0,0,0,0
200976461,0,0.0,0.0,0,1.6978,-0.224905,1.47874,0.0,0.0,0.0,0.0227181,0.0296345,0.131101,0.0,0.0,0.0,0.0,0.0,0.0,-1.43507,0.0,0.0,0.0,0.0,0.0,0,1,1,1,1,0,0,0,0,0,0,0
200981335,0,0.0,0.0,0,1.69792,-0.224758,1.4794,0.0,0.0,0.0,0.024042,0.0293546,0.132065,0.0,0.0,0.0,0.0,0.0,0.0,-1.43509,0.0,0.0,0.0,0.0,0.0,0,1,1,1,1,0,0,0,0,0,0,0
200986314,0,0.0,0.0,0,1.69804,-0.224605,1.48004,0.0,0.0,0.0,0.0247681,0.0304994,0.127803,0.0,0.0,0.0,0.0,0.0,0.0,-1.43507,0.0,0.0,0.0,0.0,0.0,0,1,1,1,1,0,0,0,0,0,0,0
200991702,0,0.0,0.0,0,1.6982,-0.224451,1.4807,0.0,0.0,0.0,0.0306357,0.0307902,0.131432,0.0,0.0,0.0,0.0,0.0,0.0,-1.43479,0.0,0.0,0.0,0.0,0.0,0,1,1,1,1,0,0,0,0,0,0,0
201006385,0,0.0,0.0,0,1.69886,-0.223943,1.48262,0.0,0.0,0.0,0.0524766,0.0362568,0.131138,0.0,0.0,0.0,0.0,0.0,0.0,-1.43184,0.0,0.0,0.0,0.0,0.0,0,1,1,1,1,0,0,0,0,0,0,0
201011322,0,0.0,0.0,0,1.69917,-0.223751,1.48326,0.0,0.0,0.0,0.0627027,0.0384564,0.127757,0.0,0.0,0.0,0.0,0.0,0.0,-1.42989,0.0,0.0,0.0,0.0,0.0,0,1,1,1,1,0,0,0,0,0,0,0
201016608,0,0.0,0.0,0,1.69953,-0.223543,1.48385,0.0,0.0,0.0,0.0725059,0.0414621,0.118271,0.0,0.0,0.0,0.0,0.0,0.0,-1.42737,0.0,0.0,0.0,0.0,0.0,0,1,1,1,1,0,0,0,0,0,0,0
201022444,0,0.0,0.0,0,1.69993,-0.223332,1.48442,0.0,0.0,0.0,0.0796997,0.0422377,0.112642,0.0,0.0,0.0,0.0,0.0,0.0,-1.42425,0.0,0.0,0.0,0.0,0.0,0,1,1,1,1,0,0,0,0,0,0,0
201026424,0,0.0,0.0,0,1.70034,-0.22312,1.48488,0.0,0.0,0.0,0.0823709,0.0421735,0.0922487,0.0,0.0,0.0,0.0,0.0,0.0,-1.42077,0.0,0.0,0.0,0.0,0.0,0,1,1,1,1,0,0,0,0,0,0,0
201031375,0,0.0,0.0,0,1.70075,-0.22291,1.48528,0.0,0.0,0.0,0.081965,0.0419917,0.0796627,0.0,0.0,0.0,0.0,0.0,0.0,-1.41729,0.0,0.0,0.0,0.0,0.0,0,1,1,1,1,0,0,0,0,0,0,0
201036294,0,0.0,0.0,0,1.69911,-0.222403,1.482,0.0,0.0,0.0,0.0653472,0.0380288,0.07258,0.0,0.0,0.0,0.0,0.0,0.0,-1.41435,0.0,0.0,0.0,0.0,0.0,0,1,1,1,1,0,0,0,0,0,0,0
201041364,0,0.0,0.0,0,1.69934,-0.222218,1.48225,0.0,0.0,0.0,0.0458082,0.0370237,0.0496422,0.0,0.0,0.0,0.0,0.0,0.0,-1.41266,0.0,0.0,0.0,0.0,0.0,0,1,1,1,1,0,0,0,0,0,0,0
201046401,0,0.0,0.0,0,1.69945,-0.222045,1.48237,0.0,0.0,0.0,0.0227592,0.0343438,0.0234934,0.0,0.0,0.0,0.0,0.0,0.0,-1.41208,0.0,0.0,0.0,0.0,0.0,0,1,1,1,1,0,0,0,0,0,0,0
201051809,0,0.0,0.0,0,1.69946,-0.22188,1.48231,0.0,0.0,0.0,0.000807515,0.0330056,-0.0115171,0.0,0.0,0.0,0.0,0.0,0.0,-1.41262,0.0,0.0,0.0,0.0,0.0,0,1,1,1,1,0,0,0,0,0,0,0
201056368,0,0.0,0.0,0,1.69939,-0.22171,1.48206,0.0,0.0,0.0,-0.0138656,0.0339448,-0.0500902,0.0,0.0,0.0,0.0,0.0,0.0,-1.414,0.0,0.0,0.0,0.0,0.0,0,1,1,1,1,0,0,0,0,0,0,0
201061468,0,0.0,0.0,0,1.69929,-0.22154,1.4816,0.0,0.0,0.0,-0.0202934,0.0339229,-0.0912915,0.0,0.0,0.0,0.0,0.0,0.0,-1.41576,0.0,0.0,0.0,0.0,0.0,0,1,1,1,1,0,0,0,0,0,0,0
201066391,0,0.0,0.0,0,1.69916,-0.221372,1.48095,0.0,0.0,0.0,-0.0252046,0.0337139,-0.130763,0.0,0.0,0.0,0.0,0.0,0.0,-1.41778,0.0,0.0,0.0,0.0,0.0,0,1,1,1,1,0,0,0,0,0,0,0
201071412,0,0.0,0.0,0,1.69904,-0.221198,1.48018,0.0,0.0,0.0,-0.0239312,0.0346206,-0.153944,0.0,0.0,0.0,0.0,0.0,0.0,-1.42008,0.0,0.0,0.0,0.0,0.0,0,1,1,1,1,0,0,0,0,0,0,0
201076847,0,0.0,0.0,0,1.69892,-0.221013,1.47932,0.0,0.0,0.0,-0.0251725,0.0369416,-0.171931,0.0,0.0,0.0,0.0,0.0,0.0,-1.42259,0.0,0.0,0.0,0.0,0.0,0,1,1,1,1,0,0,0,0,0,0,0
201082038,0,0.0,0.0,0,1.69874,-0.220818,1.47837,0.0,0.0,0.0,-0.034536,0.0390104,-0.188213,0.0,0.0,0.0,0.0,0.0,0.0,-1.42558,0.0,0.0,0.0,0.0,0.0,0,1,1,1,1,0,0,0,0,0,0,0
201087255,0,0.0,0.0,0,1.69853,-0.220613,1.4774,0.0,0.0,0.0,-0.0422681,0.0408771,-0.19483,0.0,0.0,0.0,0.0,0.0,0.0,-1.42922,0.0,0.0,0.0,0.0,0.0,0,1,1,1,1,0,0,0,0,0,0,0
201098773,0,0.0,0.0,0,1.69831,-0.220401,1.47637,0.0,0.0,0.0,-0.0450199,0.0424064,-0.204764,0.0,0.0,0.0,0.0,0.0,0.0,-1.43332,0.0,0.0,0.0,0.0,0.0,0,1,1,1,1,0,0,0,0,0,0,0
201106456,0,0.0,0.0,0,1.69771,-0.219709,1.47272,0.0,0.0,0.0,-0.0405622,0.0482229,-0.268294,0.0,0.0,0.0,0.0,0.0,0.0,-1.44673,0.0,0.0,0.0,0.0,0.0,0,1,1,1,1,0,0,0,0,0,0,0
201111497,0,0.0,0.0,0,1.69753,-0.219451,1.47125,0.0,0.0,0.0,-0.0363607,0.0513798,-0.293869,0.0,0.0,0.0,0.0,0.0,0.0,-1.4515,0.0,0.0,0.0,0.0,0.0,0,1,1,1,1,0,0,0,0,0,0,0
201116480,0,0.0,0.0,0,1.6974,-0.219165,1.46962,0.0,0.0,0.0,-0.0263877,0.0572101,-0.324996,0.0,0.0,0.0,0.0,0.0,0.0,-1.45583,0.0,0.0,0.0,0.0,0.0,0,1,1,1,1,0,0,0,0,0,0,0
201121866,0,0.0,0.0,0,1.69732,-0.218851,1.46783,0.0,0.0,0.0,-0.0164321,0.0625563,-0.356531,0.0,0.0,0.0,0.0,0.0,0.0,-1.45956,0.0,0.0,0.0,0.0,0.0,0,1,1,1,1,0,0,0,0,0,0,0
201126868,0,0.0,0.0,0,1.69727,-0.218506,1.46589,0.0,0.0,0.0,-0.0088783,0.0689055,-0.387432,0.0,0.0,0.0,0.0,0.0,0.0,-1.46281,0.0,0.0,0.0,0.0,0.0,0,1,1,1,1,0,0,0,0,0,0,0
201131636,0,0.0,0.0,0,1.69726,-0.218143,1.46376,0.0,0.0,0.0,-0.00276773,0.0726023,-0.425263,0.0,0.0,0.0,0.0,0.0,0.0,-1.46578,0.0,0.0,0.0,0.0,0.0,0,1,1,1,1,0,0,0,0,0,0,0
201136467,0,0.0,0.0,0,1.69357,-0.221221,1.44886,0.0,0.0,0.0,-0.00152561,0.0669918,-0.450938,0.0,0.0,0.0,0.0,0.0,0.0,-1.46846,0.0,0.0,0.0,0.0,0.0,0,1,1,1,1,0,0,0,0,0,0,0
201141874,0,0.0,0.0,0,1.6936,-0.220876,1.44648,0.0,0.0,0.0,0.00552322,0.0688063,-0.474744,0.0,0.0,0.0,0.0,0.0,0.0,-1.47091,0.0,0.0,0.0,0.0,0.0,0,1,1,1,1,0,0,0,0,0,0,0
201146700,0,0.0,0.0,0,1.69365,-0.220516,1.44403,0.0,0.0,0.0,0.0095528,0.0718621,-0.489669,0.0,0.0,0.0,0.0,0.0,0.0,-1.47315,0.0,0.0,0.0,0.0,0.0,0,1,1,1,1,0,0,0,0,0,0,0
201151516,0,0.0,0.0,0,1.69371,-0.220144,1.44154,0.0,0.0,0.0,0.0122314,0.074294,-0.496897,0.0,0.0,0.0,0.0,0.0,0.0,-1.47522,0.0,0.0,0.0,0.0,0.0,0,1,1,1,1,0,0,0,0,0,0,0
201156596,0,0.0,0.0,0,1.6938,-0.219754,1.43897,0.0,0.0,0.0,0.0171673,0.0779269,-0.512556,0.0,0.0,0.0,0.0,0.0,0.0,-1.47711,0.0,0.0,0.0,0.0,0.0,0,1,1,1,1,0,0,0,0,0,0,0
201162030,0,0.0,0.0,0,1.69391,-0.219346,1.43639,0.0,0.0,0.0,0.0232757,0.0814983,-0.516596,0.0,0.0,0.0,0.0,0.0,0.0,-1.47881,0.0,0.0,0.0,0.0,0.0,0,1,1,1,1,0,0,0,0,0,0,0
201166594,0,0.0,0.0,0,1.69406,-0.218917,1.43377,0.0,0.0,0.0,0.0291578,0.08551,-0.521175,0.0,0.0,0.0,0.0,0.0,0.0,-1.48032,0.0,0.0,0.0,0.0,0.0,0,1,1,1,1,0,0,0,0,0,0,0
201171600,0,0.0,0.0,0,1.69424,-0.218473,1.43113,0.0,0.0,0.0,0.035614,0.0887254,-0.528313,0.0,0.0,0.0,0.0,0.0,0.0,-1.48164,0.0,0.0,0.0,0.0,0.0,0,1,1,1,1,0,0,0,0,0,0,0
201176841,0,0.0,0.0,0,1.69443,-0.218019,1.42847,0.0,0.0,0.0,0.03894,0.0906188,-0.531167,0.0,0.0,0.0,0.0,0.0,0.0,-1.4829,0.0,0.0,0.0,0.0,0.0,0,1,1,1,1,0,0,0,0,0,0,0
201181585,0,0.0,0.0,0,1.69464,-0.217555,1.42578,0.0,0.0,0.0,0.0406682,0.0927454,-0.537521,0.0,0.0,0.0,0.0,0.0,0.0,-1.48409,0.0,0.0,0.0,0.0,0.0,0,1,1,1,1,0,0,0,0,0,0,0
201187663,0,0.0,0.0,0,1.69485,-0.217085,1.42305,0.0,0.0,0.0,0.0418958,0.0938975,-0.543985,0.0,0.0,0.0,0.0,0.0,0.0,-1.48516,0.0,0.0,0.0,0.0,0.0,0,1,1,1,1,0,0,0,0,0,0,0
201191990,0,0.0,0.0,0,1.69507,-0.216601,1.42027,0.0,0.0,0.0,0.0444751,0.0965906,-0.554742,0.0,0.0,0.0,0.0,0.0,0.0,-1.48614,0.0,0.0,0.0,0.0,0.0,0,1,1,1,1,0,0,0,0,0,0,0
201201618,0,0.0,0.0,0,1.69555,-0.215588,1.41467,0.0,0.0,0.0,0.0492718,0.102197,-0.559655,0.0,0.0,0.0,0.0,0.0,0.0,-1.48778,0.0,0.0,0.0,0.0,0.0,0,1,1,1,1,0,0,0,0,0,0,0
201207234,0,0.0,0.0,0,1.69582,-0.215066,1.41184,0.0,0.0,0.0,0.0540342,0.104214,-0.564921,0.0,0.0,0.0,0.0,0.0,0.0,-1.48842,0.0,0.0,0.0,0.0,0.0,0,1,1,1,1,0,0,0,0,0,0,0
201212085,0,0.0,0.0,0,1.69613,-0.214544,1.409,0.0,0.0,0.0,0.0611916,0.104383,-0.567051,0.0,0.0,0.0,0.0,0.0,0.0,-1.4889,0.0,0.0,0.0,0.0,0.0,0,1,1,1,1,0,0,0,0,0,0,0
201216617,0,0.0,0.0,0,1.69648,-0.214019,1.40615,0.0,0.0,0.0,0.0694679,0.104811,-0.568843,0.0,0.0,0.0,0.0,0.0,0.0,-1.48923,0.0,0.0,0.0,0.0,0.0,0,1,1,1,1,0,0,0,0,0,0,0
201222323,0,0.0,0.0,0,1.69684,-0.213482,1.40328,0.0,0.0,0.0,0.0725161,0.107228,-0.573444,0.0,0.0,0.0,0.0,0.0,0.0,-1.48941,0.0,0.0,0.0,0.0,0.0,0,1,1,1,1,0,0,0,0,0,0,0
201227062,0,0.0,0.0,0,1.69721,-0.212936,1.4004,0.0,0.0,0.0,0.0735544,0.108945,-0.574326,0.0,0.0,0.0,0.0,0.0,0.0,-1.48947,0.0,0.0,0.0,0.0,0.0,0,1,1,1,1,0,0,0,0,0,0,0
201231769,0,0.0,0.0,0,1.69509,-0.219875,1.37948,0.0,0.0,0.0,0.0772127,0.103547,-0.600384,0.0,0.0,0.0,0.0,0.0,0.0,-1.48921,0.0,0.0,0.0,0.0,0.0,0,1,1,1,1,0,0,0,0,0,0,0
201236761,0,0.0,0.0,0,1.6955,-0.219346,1.37645,0.0,0.0,0.0,0.0819,0.105637,-0.604671,0.0,0.0,0.0,0.0,0.0,0.0,-1.48907,0.0,0.0,0.0,0.0,0.0,0,1,1,1,1,0,0,0,0,0,0,0
201241687,0,0.0,0.0,0,1.69594,-0.21881,1.3734,0.0,0.0,0.0,0.0878824,0.106964,-0.608932,0.0,0.0,0.0,0.0,0.0,0.0,-1.48883,0.0,0.0,0.0,0.0,0.0,0,1,1,1,1,0,0,0,0,0,0,0
201246756,0,0.0,0.0,0,1.6964,-0.218271,1.37033,0.0,0.0,0.0,0.0926271,0.10769,-0.611444,0.0,0.0,0.0,0.0,0.0,0.0,-1.48846,0.0,0.0,0.0,0.0,0.0,0,1,1,1,1,0,0,0,0,0,0,0
201251701,0,0.0,0.0,0,1.69688,-0.217727,1.36727,0.0,0.0,0.0,0.0958294,0.108618,-0.611613,0.0,0.0,0.0,0.0,0.0,0.0,-1.488,0.0,0.0,0.0,0.0,0.0,0,1,1,1,1,0,0,0,0,0,0,0
201257099,0,0.0,0.0,0,1.69736,-0.217169,1.3642,0.0,0.0,0.0,0.0966924,0.111365,-0.614182,0.0,0.0,0.0,0.0,0.0,0.0,-1.4874,0.0,0.0,0.0,0.0,0.0,0,1,1,1,1,0,0,0,0,0,0,0
201261849,0,0.0,0.0,0,1.69785,-0.216604,1.36112,0.0,0.0,0.0,0.09703,0.112855,-0.615026,0.0,0.0,0.0,0.0,0.0,0.0,-1.48673,0.0,0.0,0.0,0.0,0.0,0,1,1,1,1,0,0,0,0,0,0,0
201266842,0,0.0,0.0,0,1.69835,-0.216033,1.35803,0.0,0.0,0.0,0.0995941,0.11399,-0.61677,0.0,0.0,0.0,0.0,0.0,0.0,-1.48603,0.0,0.0,0.0,0.0,0.0,0,1,1,1,1,0,0,0,0,0,0,0
201271765,0,0.0,0.0,0,1.69886,-0.215461,1.35494,0.0,0.0,0.0,0.102648,0.114337,-0.616064,0.0,0.0,0.0,0.0,0.0,0.0,-1.48529,0.0,0.0,0.0,0.0,0.0,0,1,1,1,1,0,0,0,0,0,0,0
201276732,0,0.0,0.0,0,1.69938,-0.214885,1.35188,0.0,0.0,0.0,0.103676,0.114924,-0.611004,0.0,0.0,0.0,0.0,0.0,0.0,-1.48446,0.0,0.0,0.0,0.0,0.0,0,1,1,1,1,0,0,0,0,0,0,0
201282353,0,0.0,0.0,0,1.69989,-0.214309,1.34885,0.0,0.0,0.0,0.100564,0.11495,-0.605253,0.0,0.0,0.0,0.0,0.0,0.0,-1.48359,0.0,0.0,0.0,0.0,0.0,0,1,1,1,1,0,0,0,0,0,0,0
201286957,0,0.0,0.0,0,1.70039,-0.213734,1.34584,0.0,0.0,0.0,0.100044,0.114911,-0.60065,0.0,0.0,0.0,0.0,0.0,0.0,-1.48272,0.0,0.0,0.0,0.0,0.0,0,1,1,1,1,0,0,0,0,0,0,0
201291768,0,0.0,0.0,0,1.7009,-0.213151,1.34284,0.0,0.0,0.0,0.102193,0.116331,-0.600458,0.0,0.0,0.0,0.0,0.0,0.0,-1.48174,0.0,0.0,0.0,0.0,0.0,0,1,1,1,1,0,0,0,0,0,0,0
201297919,0,0.0,0.0,0,1.70143,-0.212566,1.33984,0.0,0.0,0.0,0.10552,0.116908,-0.597723,0.0,0.0,0.0,0.0,0.0,0.0,-1.48068,0.0,0.0,0.0,0.0,0.0,0,1,1,1,1,0,0,0,0,0,0,0
201301749,0,0.0,0.0,0,1.70197,-0.211981,1.33687,0.0,0.0,0.0,0.10763,0.116804,-0.594678,0.0,0.0,0.0,0.0,0.0,0.0,-1.47958,0.0,0.0,0.0,0.0,0.0,0,1,1,1,1,0,0,0,0,0,0,0
201306840,0,0.0,0.0,0,1.70251,-0.211395,1.33389,0.0,0.0,0.0,0.108662,0.116949,-0.593422,0.0,0.0,0.0,0.0,0.0,0.0,-1.47843,0.0,0.0,0.0,0.0,0.0,0,1,1,1,1,0,0,0,0,0,0,0
201316819,0,0.0,0.0,0,1.70359,-0.210232,1.32798,0.0,0.0,0.0,0.10814,0.11589,-0.590294,0.0,0.0,0.0,0.0,0.0,0.0,-1.47584,0.0,0.0,0.0,0.0,0.0,0,1,1,1,1,0,0,0,0,0,0,0
201322185,0,0.0,0.0,0,1.70415,-0.20965,1.32503,0.0,0.0,0.0,0.111741,0.116129,-0.58851,0.0,0.0,0.0,0.0,0.0,0.0,-1.47449,0.0,0.0,0.0,0.0,0.0,0,1,1,1,1,0,0,0,0,0,0,0
201326930,0,0.0,0.0,0,1.70472,-0.209064,1.3221,0.0,0.0,0.0,0.112869,0.117014,-0.586125,0.0,0.0,0.0,0.0,0.0,0.0,-1.47308,0.0,0.0,0.0,0.0,0.0,0,1,1,1,1,0,0,0,0,0,0,0
201331929,0,0.0,0.0,0,1.70526,-0.208479,1.31918,0.0,0.0,0.0,0.109002,0.116875,-0.583454,0.0,0.0,0.0,0.0,0.0,0.0,-1.47165,0.0,0.0,0.0,0.0,0.0,0,1,1,1,1,0,0,0,0,0,0,0
201336885,0,0.0,0.0,0,1.7058,-0.207893,1.31627,0.0,0.0,0.0,0.106305,0.117042,-0.581274,0.0,0.0,0.0,0.0,0.0,0.0,-1.47028,0.0,0.0,0.0,0.0,0.0,0,1,1,1,1,0,0,0,0,0,0,0
201341891,0,0.0,0.0,0,1.70634,-0.207309,1.31335,0.0,0.0,0.0,0.108216,0.116665,-0.58137,0.0,0.0,0.0,0.0,0.0,0.0,-1.46896,0.0,0.0,0.0,0.0,0.0,0,1,1,1,1,0,0,0,0,0,0,0
201347721,0,0.0,0.0,0,1.70689,-0.206728,1.31046,0.0,0.0,0.0,0.11024,0.115841,-0.578209,0.0,0.0,0.0,0.0,0.0,0.0,-1.46765,0.0,0.0,0.0,0.0,0.0,0,1,1,1,1,0,0,0,0,0,0,0
201352269,0,0.0,0.0,0,1.70434,-0.223332,1.28133,0.0,0.0,0.0,0.106114,0.0988577,-0.598749,0.0,0.0,0.0,0.0,0.0,0.0,-1.466,0.0,0.0,0.0,0.0,0.0,0,1,1,1,1,0,0,0,0,0,0,0
201356909,0,0.0,0.0,0,1.70486,-0.222838,1.27835,0.0,0.0,0.0,0.104746,0.0985265,-0.594835,0.0,0.0,0.0,0.0,0.0,0.0,-1.46476,0.0,0.0,0.0,0.0,0.0,0,1,1,1,1,0,0,0,0,0,0,0
201362003,0,0.0,0.0,0,1.70538,-0.22234,1.27539,0.0,0.0,0.0,0.104622,0.0995013,-0.59103,0.0,0.0,0.0,0.0,0.0,0.0,-1.46349,0.0,0.0,0.0,0.0,0.0,0,1,1,1,1,0,0,0,0,0,0,0
201366886,0,0.0,0.0,0,1.70592,-0.221846,1.27245,0.0,0.0,0.0,0.107187,0.098588,-0.586382,0.0,0.0,0.0,0.0,0.0,0.0,-1.46221,0.0,0.0,0.0,0.0,0.0,0,1,1,1,1,0,0,0,0,0,0,0
201371917,0,0.0,0.0,0,1.70647,-0.221355,1.26954,0.0,0.0,0.0,0.109686,0.098153,-0.583022,0.0,0.0,0.0,0.0,0.0,0.0,-1.46089,0.0,0.0,0.0,0.0,0.0,0,1,1,1,1,0,0,0,0,0,0,0
201376873,0,0.0,0.0,0,1.70701,-0.220864,1.26663,0.0,0.0,0.0,0.108742,0.0979393,-0.580253,0.0,0.0,0.0,0.0,0.0,0.0,-1.4595,0.0,0.0,0.0,0.0,0.0,0,1,1,1,1,0,0,0,0,0,0,0
201382268,0,0.0,0.0,0,1.70755,-0.220377,1.26374,0.0,0.0,0.0,0.107176,0.097194,-0.577223,0.0,0.0,0.0,0.0,0.0,0.0,-1.45807,0.0,0.0,0.0,0.0,0.0,0,1,1,1,1,0,0,0,0,0,0,0
201386886,0,0.0,0.0,0,1.7081,-0.219899,1.26086,0.0,0.0,0.0,0.109563,0.0956229,-0.574816,0.0,0.0,0.0,0.0,0.0,0.0,-1.45668,0.0,0.0,0.0,0.0,0.0,0,1,1,1,1,0,0,0,0,0,0,0
201392144,0,0.0,0.0,0,1.70866,-0.219422,1.258,0.0,0.0,0.0,0.111238,0.0950874,-0.571084,0.0,0.0,0.0,0.0,0.0,0.0,-1.45527,0.0,0.0,0.0,0.0,0.0,0,1,1,1,1,0,0,0,0,0,0,0
201407177,0,0.0,0.0,0,1.71025,-0.218011,1.24965,0.0,0.0,0.0,0.107548,0.0938669,-0.549246,0.0,0.0,0.0,0.0,0.0,0.0,-1.45131,0.0,0.0,0.0,0.0,0.0,0,1,1,1,1,0,0,0,0,0,0,0
201411916,0,0.0,0.0,0,1.71078,-0.217543,1.24693,0.0,0.0,0.0,0.106689,0.0934971,-0.543982,0.0,0.0,0.0,0.0,0.0,0.0,-1.44998,0.0,0.0,0.0,0.0,0.0,0,1,1,1,1,0,0,0,0,0,0,0
201417034,0,0.0,0.0,0,1.71128,-0.21708,1.24425,0.0,0.0,0.0,0.100301,0.0925364,-0.535411,0.0,0.0,0.0,0.0,0.0,0.0,-1.44871,0.0,0.0,0.0,0.0,0.0,0,1,1,1,1,0,0,0,0,0,0,0
201422782,0,0.0,0.0,0,1.71178,-0.21661,1.2416,0.0,0.0,0.0,0.0999435,0.0938533,-0.528773,0.0,0.0,0.0,0.0,0.0,0.0,-1.44752,0.0,0.0,0.0,0.0,0.0,0,1,1,1,1,0,0,0,0,0,0,0
201426978,0,0.0,0.0,0,1.71229,-0.216144,1.23896,0.0,0.0,0.0,0.102188,0.0929422,-0.525929,0.0,0.0,0.0,0.0,0.0,0.0,-1.44626,0.0,0.0,0.0,0.0,0.0,0,1,1,1,1,0,0,0,0,0,0,0
201432066,0,0.0,0.0,0,1.71279,-0.215691,1.23636,0.0,0.0,0.0,0.0981193,0.090497,-0.519551,0.0,0.0,0.0,0.0,0.0,0.0,-1.44501,0.0,0.0,0.0,0.0,0.0,0,1,1,1,1,0,0,0,0,0,0,0
201436953,0,0.0,0.0,0,1.71326,-0.215239,1.2338,0.0,0.0,0.0,0.094506,0.0901975,-0.511742,0.0,0.0,0.0,0.0,0.0,0.0,-1.44386,0.0,0.0,0.0,0.0,0.0,0,1,1,1,1,0,0,0,0,0,0,0
201441965,0,0.0,0.0,0,1.71374,-0.214788,1.23129,0.0,0.0,0.0,0.096789,0.0901051,-0.50092,0.0,0.0,0.0,0.0,0.0,0.0,-1.44269,0.0,0.0,0.0,0.0,0.0,0,1,1,1,1,0,0,0,0,0,0,0
201447150,0,0.0,0.0,0,1.71423,-0.214343,1.22881,0.0,0.0,0.0,0.0971449,0.088691,-0.494946,0.0,0.0,0.0,0.0,0.0,0.0,-1.44143,0.0,0.0,0.0,0.0,0.0,0,1,1,1,1,0,0,0,0,0,0,0
201452203,0,0.0,0.0,0,1.71469,-0.21391,1.22637,0.0,0.0,0.0,0.0924044,0.0866735,-0.488078,0.0,0.0,0.0,0.0,0.0,0.0,-1.44017,0.0,0.0,0.0,0.0,0.0,0,1,1,1,1,0,0,0,0,0,0,0
201457075,0,0.0,0.0,0,1.71452,-0.221718,1.21743,0.0,0.0,0.0,0.0864791,0.0778239,-0.479631,0.0,0.0,0.0,0.0,0.0,0.0,-1.4394,0.0,0.0,0.0,0.0,0.0,0,1,1,1,1,0,0,0,0,0,0,0
201467008,0,0.0,0.0,0,1.71539,-0.220949,1.21271,0.0,0.0,0.0,0.0863118,0.0755654,-0.469169,0.0,0.0,0.0,0.0,0.0,0.0,-1.43697,0.0,0.0,0.0,0.0,0.0,0,1,1,1,1,0,0,0,0,0,0,0
201472188,0,0.0,0.0,0,1.7158,-0.220574,1.21039,0.0,0.0,0.0,0.0822589,0.0747471,-0.462782,0.0,0.0,0.0,0.0,0.0,0.0,-1.43582,0.0,0.0,0.0,0.0,0.0,0,1,1,1,1,0,0,0,0,0,0,0
201477040,0,0.0,0.0,0,1.7162,-0.220195,1.20813,0.0,0.0,0.0,0.0791897,0.0756281,-0.451803,0.0,0.0,0.0,0.0,0.0,0.0,-1.43472,0.0,0.0,0.0,0.0,0.0,0,1,1,1,1,0,0,0,0,0,0,0
201482176,0,0.0,0.0,0,1.7166,-0.219821,1.20588,0.0,0.0,0.0,0.0801831,0.0748705,-0.448561,0.0,0.0,0.0,0.0,0.0,0.0,-1.43359,0.0,0.0,0.0,0.0,0.0,0,1,1,1,1,0,0,0,0,0,0,0
201487310,0,0.0,0.0,0,1.717,-0.21946,1.20364,0.0,0.0,0.0,0.0785494,0.0719205,-0.447929,0.0,0.0,0.0,0.0,0.0,0.0,-1.43245,0.0,0.0,0.0,0.0,0.0,0,1,1,1,1,0,0,0,0,0,0,0
201492201,0,0.0,0.0,0,1.71737,-0.219101,1.20144,0.0,0.0,0.0,0.0747144,0.071793,-0.439434,0.0,0.0,0.0,0.0,0.0,0.0,-1.43134,0.0,0.0,0.0,0.0,0.0,0,1,1,1,1,0,0,0,0,0,0,0
201497619,0,0.0,0.0,0,1.71773,-0.218737,1.19928,0.0,0.0,0.0,0.0727389,0.0725665,-0.429984,0.0,0.0,0.0,0.0,0.0,0.0,-1.43026,0.0,0.0,0.0,0.0,0.0,0,1,1,1,1,0,0,0,0,0,0,0
201502111,0,0.0,0.0,0,1.7181,-0.218385,1.19714,0.0,0.0,0.0,0.0724769,0.0704115,-0.427623,0.0,0.0,0.0,0.0,0.0,0.0,-1.42922,0.0,0.0,0.0,0.0,0.0,0,1,1,1,1,0,0,0,0,0,0,0
201507348,0,0.0,0.0,0,1.71844,-0.218039,1.19503,0.0,0.0,0.0,0.0680931,0.0691336,-0.422664,0.0,0.0,0.0,0.0,0.0,0.0,-1.42819,0.0,0.0,0.0,0.0,0.0,0,1,1,1,1,0,0,0,0,0,0,0
201512194,0,0.0,0.0,0,1.71875,-0.217688,1.19298,0.0,0.0,0.0,0.0629097,0.0699068,-0.408791,0.0,0.0,0.0,0.0,0.0,0.0,-1.42721,0.0,0.0,0.0,0.0,0.0,0,1,1,1,1,0,0,0,0,0,0,0
201517069,0,0.0,0.0,0,1.71907,-0.217343,1.19096,0.0,0.0,0.0,0.0628926,0.0689664,-0.403195,0.0,0.0,0.0,0.0,0.0,0.0,-1.42623,0.0,0.0,0.0,0.0,0.0,0,1,1,1,1,0,0,0,0,0,0,0
201522534,0,0.0,0.0,0,1.71938,-0.217009,1.18894,0.0,0.0,0.0,0.0626255,0.0666729,-0.403214,0.0,0.0,0.0,0.0,0.0,0.0,-1.42523,0.0,0.0,0.0,0.0,0.0,0,1,1,1,1,0,0,0,0,0,0,0
201527181,0,0.0,0.0,0,1.71968,-0.216671,1.18698,0.0,0.0,0.0,0.0589363,0.0675047,-0.391331,0.0,0.0,0.0,0.0,0.0,0.0,-1.42427,0.0,0.0,0.0,0.0,0.0,0,1,1,1,1,0,0,0,0,0,0,0
201532150,0,0.0,0.0,0,1.71996,-0.216329,1.18509,0.0,0.0,0.0,0.0560307,0.0683534,-0.378162,0.0,0.0,0.0,0.0,0.0,0.0,-1.42339,0.0,0.0,0.0,0.0,0.0,0,1,1,1,1,0,0,0,0,0,0,0
201537204,0,0.0,0.0,0,1.7225,-0.229805,1.17276,0.0,0.0,0.0,0.0534832,0.0471674,-0.378521,0.0,0.0,0.0,0.0,0.0,0.0,-1.42332,0.0,0.0,0.0,0.0,0.0,0,1,1,1,1,0,0,0,0,0,0,0
201542194,0,0.0,0.0,0,1.72275,-0.229574,1.1709,0.0,0.0,0.0,0.0497328,0.0461287,-0.372453,0.0,0.0,0.0,0.0,0.0,0.0,-1.42245,0.0,0.0,0.0,0.0,0.0,0,1,1,1,1,0,0,0,0,0,0,0
201552126,0,0.0,0.0,0,1.7232,-0.229106,1.16735,0.0,0.0,0.0,0.0456165,0.0461451,-0.351255,0.0,0.0,0.0,0.0,0.0,0.0,-1.42081,0.0,0.0,0.0,0.0,0.0,0,1,1,1,1,0,0,0,0,0,0,0
201557418,0,0.0,0.0,0,1.72342,-0.228888,1.16559,0.0,0.0,0.0,0.0434816,0.0436511,-0.350928,0.0,0.0,0.0,0.0,0.0,0.0,-1.41999,0.0,0.0,0.0,0.0,0.0,0,1,1,1,1,0,0,0,0,0,0,0
201562494,0,0.0,0.0,0,1.72363,-0.228665,1.16387,0.0,0.0,0.0,0.0408761,0.044376,-0.342421,0.0,0.0,0.0,0.0,0.0,0.0,-1.41922,0.0,0.0,0.0,0.0,0.0,0,1,1,1,1,0,0,0,0,0,0,0
201567191,0,0.0,0.0,0,1.72382,-0.22844,1.1622,0.0,0.0,0.0,0.038542,0.0450302,-0.334318,0.0,0.0,0.0,0.0,0.0,0.0,-1.41844,0.0,0.0,0.0,0.0,0.0,0,1,1,1,1,0,0,0,0,0,0,0
201572249,0,0.0,0.0,0,1.724,-0.228229,1.16053,0.0,0.0,0.0,0.0370482,0.0420863,-0.334212,0.0,0.0,0.0,0.0,0.0,0.0,-1.41767,0.0,0.0,0.0,0.0,0.0,0,1,1,1,1,0,0,0,0,0,0,0
201577248,0,0.0,0.0,0,1.72417,-0.228022,1.15887,0.0,0.0,0.0,0.0320897,0.041423,-0.33081,0.0,0.0,0.0,0.0,0.0,0.0,-1.41701,0.0,0.0,0.0,0.0,0.0,0,1,1,1,1,0,0,0,0,0,0,0
201582221,0,0.0,0.0,0,1.72431,-0.227806,1.15728,0.0,0.0,0.0,0.0293144,0.0430329,-0.316551,0.0,0.0,0.0,0.0,0.0,0.0,-1.41642,0.0,0.0,0.0,0.0,0.0,0,1,1,1,1,0,0,0,0,0,0,0
201587386,0,0.0,0.0,0,1.72445,-0.227599,1.15573,0.0,0.0,0.0,0.0281575,0.0413864,-0.310819,0.0,0.0,0.0,0.0,0.0,0.0,-1.41581,0.0,0.0,0.0,0.0,0.0,0,1,1,1,1,0,0,0,0,0,0,0
201592259,0,0.0,0.0,0,1.72457,-0.227404,1.15418,0.0,0.0,0.0,0.0226416,0.0389773,-0.309471,0.0,0.0,0.0,0.0,0.0,0.0,-1.4153,0.0,0.0,0.0,0.0,0.0,0,1,1,1,1,0,0,0,0,0,0,0
201600743,0,0.0,0.0,0,1.72468,-0.227202,1.15269,0.0,0.0,0.0,0.0223804,0.0402382,-0.297849,0.0,0.0,0.0,0.0,0.0,0.0,-1.41491,0.0,0.0,0.0,0.0,0.0,0,1,1,1,1,0,0,0,0,0,0,0
201602281,0,0.0,0.0,0,1.72479,-0.226999,1.15126,0.0,0.0,0.0,0.0215119,0.0405471,-0.285373,0.0,0.0,0.0,0.0,0.0,0.0,-1.41451,0.0,0.0,0.0,0.0,0.0,0,1,1,1,1,0,0,0,0,0,0,0
201607414,0,0.0,0.0,0,1.72488,-0.226805,1.14985,0.0,0.0,0.0,0.0181574,0.0387005,-0.280303,0.0,0.0,0.0,0.0,0.0,0.0,-1.41413,0.0,0.0,0.0,0.0,0.0,0,1,1,1,1,0,0,0,0,0,0,0
201612330,0,0.0,0.0,0,1.72496,-0.226607,1.14849,0.0,0.0,0.0,0.0157692,0.0395618,-0.273185,0.0,0.0,0.0,0.0,0.0,0.0,-1.41382,0.0,0.0,0.0,0.0,0.0,0,1,1,1,1,0,0,0,0,0,0,0
201617865,0,0.0,0.0,0,1.72503,-0.226401,1.14719,0.0,0.0,0.0,0.0153795,0.041089,-0.258394,0.0,0.0,0.0,0.0,0.0,0.0,-1.41348,0.0,0.0,0.0,0.0,0.0,0,1,1,1,1,0,0,0,0,0,0,0
201623135,0,0.0,0.0,0,1.72511,-0.226206,1.14594,0.0,0.0,0.0,0.0154882,0.0390511,-0.250389,0.0,0.0,0.0,0.0,0.0,0.0,-1.41304,0.0,0.0,0.0,0.0,0.0,0,1,1,1,1,0,0,0,0,0,0,0
201627482,0,0.0,0.0,0,1.72516,-0.226015,1.1447,0.0,0.0,0.0,0.0092811,0.0381235,-0.246509,0.0,0.0,0.0,0.0,0.0,0.0,-1.41269,0.0,0.0,0.0,0.0,0.0,0,1,1,1,1,0,0,0,0,0,0,0
201632383,0,0.0,0.0,0,1.7252,-0.225818,1.14352,0.0,0.0,0.0,0.00832503,0.0393836,-0.235403,0.0,0.0,0.0,0.0,0.0,0.0,-1.41249,0.0,0.0,0.0,0.0,0.0,0,1,1,1,1,0,0,0,0,0,0,0
201637340,0,0.0,0.0,0,1.72524,-0.225621,1.14239,0.0,0.0,0.0,0.00907731,0.0393164,-0.226316,0.0,0.0,0.0,0.0,0.0,0.0,-1.41225,0.0,0.0,0.0,0.0,0.0,0,1,1,1,1,0,0,0,0,0,0,0
201642463,0,0.0,0.0,0,1.72286,-0.226878,1.13283,0.0,0.0,0.0,0.000808528,0.0327061,-0.220612,0.0,0.0,0.0,0.0,0.0,0.0,-1.41242,0.0,0.0,0.0,0.0,0.0,0,1,1,1,1,0,0,0,0,0,0,0
201647403,0,0.0,0.0,0,1.72288,-0.226706,1.13176,0.0,0.0,0.0,0.0039614,0.0343438,-0.214417,0.0,0.0,0.0,0.0,0.0,0.0,-1.41214,0.0,0.0,0.0,0.0,0.0,0,1,1,1,1,0,0,0,0,0,0,0
201652392,0,0.0,0.0,0,1.7229,-0.226528,1.13071,0.0,0.0,0.0,0.00463059,0.0355674,-0.20898,0.0,0.0,0.0,0.0,0.0,0.0,-1.41169,0.0,0.0,0.0,0.0,0.0,0,1,1,1,1,0,0,0,0,0,0,0
201657635,0,0.0,0.0,0,1.72291,-0.22636,1.1297,0.0,0.0,0.0,0.00116229,0.0334221,-0.202662,0.0,0.0,0.0,0.0,0.0,0.0,-1.41131,0.0,0.0,0.0,0.0,0.0,0,1,1,1,1,0,0,0,0,0,0,0
201662451,0,0.0,0.0,0,1.72289,-0.226191,1.12871,0.0,0.0,0.0,-0.00382586,0.0337524,-0.197253,0.0,0.0,0.0,0.0,0.0,0.0,-1.41116,0.0,0.0,0.0,0.0,0.0,0,1,1,1,1,0,0,0,0,0,0,0
201667327,0,0.0,0.0,0,1.72287,-0.226019,1.12776,0.0,0.0,0.0,-0.00424947,0.0344513,-0.189397,0.0,0.0,0.0,0.0,0.0,0.0,-1.41109,0.0,0.0,0.0,0.0,0.0,0,1,1,1,1,0,0,0,0,0,0,0
201672396,0,0.0,0.0,0,1.72285,-0.225847,1.12687,0.0,0.0,0.0,-0.00379223,0.0343377,-0.17901,0.0,0.0,0.0,0.0,0.0,0.0,-1.41107,0.0,0.0,0.0,0.0,0.0,0,1,1,1,1,0,0,0,0,0,0,0
201677689,0,0.0,0.0,0,1.7228,-0.225675,1.126,0.0,0.0,0.0,-0.00870736,0.0343409,-0.172412,0.0,0.0,0.0,0.0,0.0,0.0,-1.41116,0.0,0.0,0.0,0.0,0.0,0,1,1,1,1,0,0,0,0,0,0,0
201682438,0,0.0,0.0,0,1.72275,-0.225501,1.12518,0.0,0.0,0.0,-0.0105003,0.0347392,-0.163884,0.0,0.0,0.0,0.0,0.0,0.0,-1.41135,0.0,0.0,0.0,0.0,0.0,0,1,1,1,1,0,0,0,0,0,0,0
201687394,0,0.0,0.0,0,1.72269,-0.225326,1.12441,0.0,0.0,0.0,-0.0116681,0.0349176,-0.1532,0.0,0.0,0.0,0.0,0.0,0.0,-1.41155,0.0,0.0,0.0,0.0,0.0,0,1,1,1,1,0,0,0,0,0,0,0
201692735,0,0.0,0.0,0,1.72264,-0.225152,1.12367,0.0,0.0,0.0,-0.0105935,0.0347157,-0.147695,0.0,0.0,0.0,0.0,0.0,0.0,-1.4117,0.0,0.0,0.0,0.0,0.0,0,1,1,1,1,0,0,0,0,0,0,0
201697414,0,0.0,0.0,0,1.72258,-0.224966,1.12298,0.0,0.0,0.0,-0.0114565,0.0370496,-0.138898,0.0,0.0,0.0,0.0,0.0,0.0,-1.41183,0.0,0.0,0.0,0.0,0.0,0,1,1,1,1,0,0,0,0,0,0,0
201702370,0,0.0,0.0,0,1.72251,-0.224781,1.12234,0.0,0.0,0.0,-0.0141276,0.0370544,-0.127454,0.0,0.0,0.0,0.0,0.0,0.0,-1.41201,0.0,0.0,0.0,0.0,0.0,0,1,1,1,1,0,0,0,0,0,0,0
201707407,0,0.0,0.0,0,1.72245,-0.224597,1.12173,0.0,0.0,0.0,-0.0127298,0.0366869,-0.122651,0.0,0.0,0.0,0.0,0.0,0.0,-1.41222,0.0,0.0,0.0,0.0,0.0,0,1,1,1,1,0,0,0,0,0,0,0
201712471,0,0.0,0.0,0,1.72238,-0.224413,1.12115,0.0,0.0,0.0,-0.0125379,0.0366855,-0.115137,0.0,0.0,0.0,0.0,0.0,0.0,-1.41243,0.0,0.0,0.0,0.0,0.0,0,1,1,1,1,0,0,0,0,0,0,0
201718076,0,0.0,0.0,0,1.72232,-0.224227,1.12063,0.0,0.0,0.0,-0.0123477,0.0372882,-0.103945,0.0,0.0,0.0,0.0,0.0,0.0,-1.41265,0.0,0.0,0.0,0.0,0.0,0,1,1,1,1,0,0,0,0,0,0,0
201723235,0,0.0,0.0,0,1.72225,-0.224043,1.12015,0.0,0.0,0.0,-0.0149062,0.0366999,-0.096459,0.0,0.0,0.0,0.0,0.0,0.0,-1.41286,0.0,0.0,0.0,0.0,0.0,0,1,1,1,1,0,0,0,0,0,0,0
201727765,0,0.0,0.0,0,1.72217,-0.223856,1.11969,0.0,0.0,0.0,-0.0152227,0.0372979,-0.0913439,0.0,0.0,0.0,0.0,0.0,0.0,-1.41312,0.0,0.0,0.0,0.0,0.0,0,1,1,1,1,0,0,0,0,0,0,0
201732591,0,0.0,0.0,0,1.7221,-0.223662,1.11927,0.0,0.0,0.0,-0.0142324,0.0386984,-0.0827773,0.0,0.0,0.0,0.0,0.0,0.0,-1.4134,0.0,0.0,0.0,0.0,0.0,0,1,1,1,1,0,0,0,0,0,0,0
201737449,0,0.0,0.0,0,1.71504,-0.246441,1.1045,0.0,0.0,0.0,-0.0501966,0.0148071,-0.0934091,0.0,0.0,0.0,0.0,0.0,0.0,-1.41413,0.0,0.0,0.0,0.0,0.0,0,1,1,1,1,0,0,0,0,0,0,0
201742648,0,0.0,0.0,0,1.71478,-0.24637,1.10407,0.0,0.0,0.0,-0.0516172,0.0141014,-0.0862457,0.0,0.0,0.0,0.0,0.0,0.0,-1.41449,0.0,0.0,0.0,0.0,0.0,0,1,1,1,1,0,0,0,0,0,0,0
201747489,0,0.0,0.0,0,1.71453,-0.246297,1.10366,0.0,0.0,0.0,-0.0498108,0.0145501,-0.0801584,0.0,0.0,0.0,0.0,0.0,0.0,-1.41491,0.0,0.0,0.0,0.0,0.0,0,1,1,1,1,0,0,0,0,0,0,0
201752497,0,0.0,0.0,0,1.71429,-0.246221,1.1033,0.0,0.0,0.0,-0.0487792,0.0153011,-0.0728013,0.0,0.0,0.0,0.0,0.0,0.0,-1.41533,0.0,0.0,0.0,0.0,0.0,0,1,1,1,1,0,0,0,0,0,0,0
201757663,0,0.0,0.0,0,1.71404,-0.246147,1.10295,0.0,0.0,0.0,-0.0508985,0.014673,-0.0696224,0.0,0.0,0.0,0.0,0.0,0.0,-1.41578,0.0,0.0,0.0,0.0,0.0,0,1,1,1,1,0,0,0,0,0,0,0
201762521,0,0.0,0.0,0,1.71379,-0.246069,1.10259,0.0,0.0,0.0,-0.0481493,0.0155436,-0.0715384,0.0,0.0,0.0,0.0,0.0,0.0,-1.41627,0.0,0.0,0.0,0.0,0.0,0,1,1,1,1,0,0,0,0,0,0,0
201767500,0,0.0,0.0,0,1.71357,-0.245986,1.10224,0.0,0.0,0.0,-0.0439773,0.0166944,-0.0701341,0.0,0.0,0.0,0.0,0.0,0.0,-1.41665,0.0,0.0,0.0,0.0,0.0,0,1,1,1,1,0,0,0,0,0,0,0
201772504,0,0.0,0.0,0,1.71333,-0.245899,1.10193,0.0,0.0,0.0,-0.0488124,0.0173454,-0.0616453,0.0,0.0,0.0,0.0,0.0,0.0,-1.41701,0.0,0.0,0.0,0.0,0.0,0,1,1,1,1,0,0,0,0,0,0,0
201777593,0,0.0,0.0,0,1.71308,-0.245812,1.10166,0.0,0.0,0.0,-0.0497726,0.017346,-0.0550919,0.0,0.0,0.0,0.0,0.0,0.0,-1.41752,0.0,0.0,0.0,0.0,0.0,0,1,1,1,1,0,0,0,0,0,0,0
201782483,0,0.0,0.0,0,1.71286,-0.245719,1.10139,0.0,0.0,0.0,-0.0435588,0.0185734,-0.0529186,0.0,0.0,0.0,0.0,0.0,0.0,-1.418,0.0,0.0,0.0,0.0,0.0,0,1,1,1,1,0,0,0,0,0,0,0
201787609,0,0.0,0.0,0,1.71264,-0.245618,1.10118,0.0,0.0,0.0,-0.0447214,0.0201742,-0.0421976,0.0,0.0,0.0,0.0,0.0,0.0,-1.41838,0.0,0.0,0.0,0.0,0.0,0,1,1,1,1,0,0,0,0,0,0,0
201792848,0,0.0,0.0,0,1.71241,-0.245512,1.10104,0.0,0.0,0.0,-0.0462311,0.0211037,-0.0289428,0.0,0.0,0.0,0.0,0.0,0.0,-1.41888,0.0,0.0,0.0,0.0,0.0,0,1,1,1,1,0,0,0,0,0,0,0
201797599,0,0.0,0.0,0,1.71221,-0.245405,1.1009,0.0,0.0,0.0,-0.0401024,0.0213415,-0.027138,0.0,0.0,0.0,0.0,0.0,0.0,-1.41939,0.0,0.0,0.0,0.0,0.0,0,1,1,1,1,0,0,0,0,0,0,0
201803159,0,0.0,0.0,0,1.71202,-0.245291,1.10079,0.0,0.0,0.0,-0.0376432,0.0227843,-0.0223106,0.0,0.0,0.0,0.0,0.0,0.0,-1.41974,0.0,0.0,0.0,0.0,0.0,0,1,1,1,1,0,0,0,0,0,0,0
201807575,0,0.0,0.0,0,1.7118,-0.245166,1.10076,0.0,0.0,0.0,-0.0431722,0.0250114,-0.00552253,0.0,0.0,0.0,0.0,0.0,0.0,-1.4201,0.0,0.0,0.0,0.0,0.0,0,1,1,1,1,0,0,0,0,0,0,0
201812653,0,0.0,0.0,0,1.7116,-0.24503,1.10076,0.0,0.0,0.0,-0.0400554,0.0271036,-0.000817764,0.0,0.0,0.0,0.0,0.0,0.0,-1.42046,0.0,0.0,0.0,0.0,0.0,0,1,1,1,1,0,0,0,0,0,0,0
201817778,0,0.0,0.0,0,1.71142,-0.244898,1.10075,0.0,0.0,0.0,-0.0364954,0.0264758,-0.000480045,0.0,0.0,0.0,0.0,0.0,0.0,-1.42068,0.0,0.0,0.0,0.0,0.0,0,1,1,1,1,0,0,0,0,0,0,0
201822870,0,0.0,0.0,0,1.71123,-0.244755,1.10082,0.0,0.0,0.0,-0.0380986,0.0284452,0.0127799,0.0,0.0,0.0,0.0,0.0,0.0,-1.42089,0.0,0.0,0.0,0.0,0.0,0,1,1,1,1,0,0,0,0,0,0,0
201827877,0,0.0,0.0,0,1.71105,-0.244598,1.10093,0.0,0.0,0.0,-0.0351625,0.0313601,0.0233223,0.0,0.0,0.0,0.0,0.0,0.0,-1.42108,0.0,0.0,0.0,0.0,0.0,0,1,1,1,1,0,0,0,0,0,0,0
201832613,0,0.0,0.0,0,1.71089,-0.244445,1.10106,0.0,0.0,0.0,-0.0314274,0.0305149,0.0254893,0.0,0.0,0.0,0.0,0.0,0.0,-1.42116,0.0,0.0,0.0,0.0,0.0,0,1,1,1,1,0,0,0,0,0,0,0
201837960,0,0.0,0.0,0,1.70898,-0.240651,1.08582,0.0,0.0,0.0,-0.0352435,0.0331421,0.00376799,0.0,0.0,0.0,0.0,0.0,0.0,-1.42146,0.0,0.0,0.0,0.0,0.0,0,1,1,1,1,0,0,0,0,0,0,0
201842596,0,0.0,0.0,0,1.70881,-0.240472,1.0859,0.0,0.0,0.0,-0.0339779,0.0357885,0.0170713,0.0,0.0,0.0,0.0,0.0,0.0,-1.42153,0.0,0.0,0.0,0.0,0.0,0,1,1,1,1,0,0,0,0,0,0,0
201848061,0,0.0,0.0,0,1.70866,-0.240282,1.08602,0.0,0.0,0.0,-0.028779,0.037952,0.0232048,0.0,0.0,0.0,0.0,0.0,0.0,-1.42151,0.0,0.0,0.0,0.0,0.0,0,1,1,1,1,0,0,0,0,0,0,0
201852764,0,0.0,0.0,0,1.70854,-0.240092,1.08613,0.0,0.0,0.0,-0.0249813,0.0378562,0.0232073,0.0,0.0,0.0,0.0,0.0,0.0,-1.42138,0.0,0.0,0.0,0.0,0.0,0,1,1,1,1,0,0,0,0,0,0,0
201857691,0,0.0,0.0,0,1.70841,-0.23989,1.0863,0.0,0.0,0.0,-0.0246443,0.0404582,0.0332678,0.0,0.0,0.0,0.0,0.0,0.0,-1.42127,0.0,0.0,0.0,0.0,0.0,0,1,1,1,1,0,0,0,0,0,0,0
201862637,0,0.0,0.0,0,1.70829,-0.23967,1.08654,0.0,0.0,0.0,-0.0243654,0.0439387,0.0472016,0.0,0.0,0.0,0.0,0.0,0.0,-1.42114,0.0,0.0,0.0,0.0,0.0,0,1,1,1,1,0,0,0,0,0,0,0
201867688,0,0.0,0.0,0,1.70818,-0.239452,1.0868,0.0,0.0,0.0,-0.022044,0.0434639,0.0530429,0.0,0.0,0.0,0.0,0.0,0.0,-1.42095,0.0,0.0,0.0,0.0,0.0,0,1,1,1,1,0,0,0,0,0,0,0
201873045,0,0.0,0.0,0,1.70807,-0.239231,1.08709,0.0,0.0,0.0,-0.0218104,0.0440692,0.0573951,0.0,0.0,0.0,0.0,0.0,0.0,-1.42076,0.0,0.0,0.0,0.0,0.0,0,1,1,1,1,0,0,0,0,0,0,0
201877700,0,0.0,0.0,0,1.70796,-0.238999,1.08744,0.0,0.0,0.0,-0.0215296,0.0463541,0.0705606,0.0,0.0,0.0,0.0,0.0,0.0,-1.42061,0.0,0.0,0.0,0.0,0.0,0,1,1,1,1,0,0,0,0,0,0,0
201883258,0,0.0,0.0,0,1.70787,-0.238757,1.08783,0.0,0.0,0.0,-0.0187068,0.0483972,0.0779367,0.0,0.0,0.0,0.0,0.0,0.0,-1.42045,0.0,0.0,0.0,0.0,0.0,0,1,1,1,1,0,0,0,0,0,0,0
201887761,0,0.0,0.0,0,1.70779,-0.238518,1.08823,0.0,0.0,0.0,-0.0161972,0.0477513,0.0789636,0.0,0.0,0.0,0.0,0.0,0.0,-1.42028,0.0,0.0,0.0,0.0,0.0,0,1,1,1,1,0,0,0,0,0,0,0
201892687,0,0.0,0.0,0,1.70772,-0.238277,1.08867,0.0,0.0,0.0,-0.0144663,0.0481463,0.0872862,0.0,0.0,0.0,0.0,0.0,0.0,-1.42016,0.0,0.0,0.0,0.0,0.0,0,1,1,1,1,0,0,0,0,0,0,0
201897900,0,0.0,0.0,0,1.70765,-0.238017,1.08916,0.0,0.0,0.0,-0.0142814,0.0518278,0.0986964,0.0,0.0,0.0,0.0,0.0,0.0,-1.42009,0.0,0.0,0.0,0.0,0.0,0,1,1,1,1,0,0,0,0,0,0,0
201902704,0,0.0,0.0,0,1.70759,-0.237748,1.08967,0.0,0.0,0.0,-0.0100681,0.0536513,0.102129,0.0,0.0,0.0,0.0,0.0,0.0,-1.41999,0.0,0.0,0.0,0.0,0.0,0,1,1,1,1,0,0,0,0,0,0,0
201907726,0,0.0,0.0,0,1.70755,-0.237481,1.09019,0.0,0.0,0.0,-0.00914251,0.0533309,0.103443,0.0,0.0,0.0,0.0,0.0,0.0,-1.41985,0.0,0.0,0.0,0.0,0.0,0,1,1,1,1,0,0,0,0,0,0,0
201913258,0,0.0,0.0,0,1.70751,-0.2372,1.09075,0.0,0.0,0.0,-0.00774451,0.0562879,0.111055,0.0,0.0,0.0,0.0,0.0,0.0,-1.41976,0.0,0.0,0.0,0.0,0.0,0,1,1,1,1,0,0,0,0,0,0,0
201917900,0,0.0,0.0,0,1.70749,-0.236903,1.09135,0.0,0.0,0.0,-0.00410537,0.0591678,0.120425,0.0,0.0,0.0,0.0,0.0,0.0,-1.41962,0.0,0.0,0.0,0.0,0.0,0,1,1,1,1,0,0,0,0,0,0,0
201923039,0,0.0,0.0,0,1.70749,-0.236605,1.09197,0.0,0.0,0.0,-0.000731371,0.0594576,0.123845,0.0,0.0,0.0,0.0,0.0,0.0,-1.41937,0.0,0.0,0.0,0.0,0.0,0,1,1,1,1,0,0,0,0,0,0,0
201928190,0,0.0,0.0,0,1.70748,-0.236305,1.09261,0.0,0.0,0.0,-0.00131261,0.0598822,0.127153,0.0,0.0,0.0,0.0,0.0,0.0,-1.41911,0.0,0.0,0.0,0.0,0.0,0,1,1,1,1,0,0,0,0,0,0,0
201933332,0,0.0,0.0,0,1.70748,-0.235993,1.09328,0.0,0.0,0.0,-0.000276925,0.062354,0.134254,0.0,0.0,0.0,0.0,0.0,0.0,-1.41892,0.0,0.0,0.0,0.0,0.0,0,1,1,1,1,0,0,0,0,0,0,0
201937796,0,0.0,0.0,0,1.70848,-0.227884,1.06393,0.0,0.0,0.0,0.00505344,0.0576543,0.0888158,0.0,0.0,0.0,0.0,0.0,0.0,-1.4186,0.0,0.0,0.0,0.0,0.0,0,1,1,1,1,0,0,0,0,0,0,0
201943210,0,0.0,0.0,0,1.7085,-0.227598,1.0644,0.0,0.0,0.0,0.00391695,0.0570963,0.0928828,0.0,0.0,0.0,0.0,0.0,0.0,-1.41845,0.0,0.0,0.0,0.0,0.0,0,1,1,1,1,0,0,0,0,0,0,0
201947787,0,0.0,0.0,0,1.70852,-0.227308,1.06488,0.0,0.0,0.0,0.00455755,0.0580363,0.0969361,0.0,0.0,0.0,0.0,0.0,0.0,-1.41841,0.0,0.0,0.0,0.0,0.0,0,1,1,1,1,0,0,0,0,0,0,0
201953531,0,0.0,0.0,0,1.70854,-0.22701,1.0654,0.0,0.0,0.0,0.00505484,0.0594343,0.103807,0.0,0.0,0.0,0.0,0.0,0.0,-1.41845,0.0,0.0,0.0,0.0,0.0,0,1,1,1,1,0,0,0,0,0,0,0
201957873,0,0.0,0.0,0,1.70859,-0.226702,1.06595,0.0,0.0,0.0,0.00925701,0.061547,0.108634,0.0,0.0,0.0,0.0,0.0,0.0,-1.41843,0.0,0.0,0.0,0.0,0.0,0,1,1,1,1,0,0,0,0,0,0,0
201962960,0,0.0,0.0,0,1.70864,-0.226396,1.06653,0.0,0.0,0.0,0.00920024,0.0610223,0.115921,0.0,0.0,0.0,0.0,0.0,0.0,-1.41836,0.0,0.0,0.0,0.0,0.0,0,1,1,1,1,0,0,0,0,0,0,0
201967830,0,0.0,0.0,0,1.70869,-0.226085,1.06714,0.0,0.0,0.0,0.00994995,0.0620157,0.121867,0.0,0.0,0.0,0.0,0.0,0.0,-1.41837,0.0,0.0,0.0,0.0,0.0,0,1,1,1,1,0,0,0,0,0,0,0
201972889,0,0.0,0.0,0,1.70874,-0.225768,1.06778,0.0,0.0,0.0,0.0112035,0.0635007,0.128446,0.0,0.0,0.0,0.0,0.0,0.0,-1.41843,0.0,0.0,0.0,0.0,0.0,0,1,1,1,1,0,0,0,0,0,0,0
201977839,0,0.0,0.0,0,1.70881,-0.225443,1.06846,0.0,0.0,0.0,0.0140696,0.0648331,0.134997,0.0,0.0,0.0,0.0,0.0,0.0,-1.41845,0.0,0.0,0.0,0.0,0.0,0,1,1,1,1,0,0,0,0,0,0,0
201982984,0,0.0,0.0,0,1.70889,-0.225115,1.06916,0.0,0.0,0.0,0.0156788,0.0655888,0.140761,0.0,0.0,0.0,0.0,0.0,0.0,-1.4185,0.0,0.0,0.0,0.0,0.0,0,1,1,1,1,0,0,0,0,0,0,0
201988070,0,0.0,0.0,0,1.70898,-0.224785,1.0699,0.0,0.0,0.0,0.0177004,0.0657807,0.147889,0.0,0.0,0.0,0.0,0.0,0.0,-1.41859,0.0,0.0,0.0,0.0,0.0,0,1,1,1,1,0,0,0,0,0,0,0
201992875,0,0.0,0.0,0,1.70908,-0.224448,1.07066,0.0,0.0,0.0,0.0191583,0.0672843,0.151926,0.0,0.0,0.0,0.0,0.0,0.0,-1.41867,0.0,0.0,0.0,0.0,0.0,0,1,1,1,1,0,0,0,0,0,0,0
201998428,0,0.0,0.0,0,1.70917,-0.224107,1.07146,0.0,0.0,0.0,0.0197806,0.0682041,0.157968,0.0,0.0,0.0,0.0,0.0,0.0,-1.41872,0.0,0.0,0.0,0.0,0.0,0,1,1,1,1,0,0,0,0,0,0,0
202003081,0,0.0,0.0,0,1.70928,-0.223759,1.07228,0.0,0.0,0.0,0.0203705,0.0693334,0.164238,0.0,0.0,0.0,0.0,0.0,0.0,-1.4188,0.0,0.0,0.0,0.0,0.0,0,1,1,1,1,0,0,0,0,0,0,0
202007854,0,0.0,0.0,0,1.70939,-0.223413,1.07312,0.0,0.0,0.0,0.0228076,0.0691958,0.167568,0.0,0.0,0.0,0.0,0.0,0.0,-1.41892,0.0,0.0,0.0,0.0,0.0,0,1,1,1,1,0,0,0,0,0,0,0
202012871,0,0.0,0.0,0,1.70951,-0.22306,1.07398,0.0,0.0,0.0,0.0236177,0.0703653,0.172733,0.0,0.0,0.0,0.0,0.0,0.0,-1.41904,0.0,0.0,0.0,0.0,0.0,0,1,1,1,1,0,0,0,0,0,0,0
202017873,0,0.0,0.0,0,1.70963,-0.222706,1.07489,0.0,0.0,0.0,0.0236097,0.0707049,0.180606,0.0,0.0,0.0,0.0,0.0,0.0,-1.41916,0.0,0.0,0.0,0.0,0.0,0,1,1,1,1,0,0,0,0,0,0,0
202023123,0,0.0,0.0,0,1.70976,-0.22235,1.07582,0.0,0.0,0.0,0.0274228,0.0712167,0.185573,0.0,0.0,0.0,0.0,0.0,0.0,-1.41927,0.0,0.0,0.0,0.0,0.0,0,1,1,1,1,0,0,0,0,0,0,0
202028134,0,0.0,0.0,0,1.70991,-0.221994,1.07676,0.0,0.0,0.0,0.0283011,0.0711174,0.188974,0.0,0.0,0.0,0.0,0.0,0.0,-1.41935,0.0,0.0,0.0,0.0,0.0,0,1,1,1,1,0,0,0,0,0,0,0
202033177,0,0.0,0.0,0,1.71005,-0.221628,1.07774,0.0,0.0,0.0,0.0281495,0.0730145,0.195613,0.0,0.0,0.0,0.0,0.0,0.0,-1.41941,0.0,0.0,0.0,0.0,0.0,0,1,1,1,1,0,0,0,0,0,0,0
202038002,0,0.0,0.0,0,1.71335,-0.218621,1.06446,0.0,0.0,0.0,0.0372383,0.0774153,0.182027,0.0,0.0,0.0,0.0,0.0,0.0,-1.4198,0.0,0.0,0.0,0.0,0.0,0,1,1,1,1,0,0,0,0,0,0,0
202042979,0,0.0,0.0,0,1.71354,-0.218237,1.06539,0.0,0.0,0.0,0.0398768,0.0768462,0.184137,0.0,0.0,0.0,0.0,0.0,0.0,-1.41974,0.0,0.0,0.0,0.0,0.0,0,1,1,1,1,0,0,0,0,0,0,0
202048032,0,0.0,0.0,0,1.71373,-0.217847,1.06633,0.0,0.0,0.0,0.0376954,0.0776757,0.188138,0.0,0.0,0.0,0.0,0.0,0.0,-1.41966,0.0,0.0,0.0,0.0,0.0,0,1,1,1,1,0,0,0,0,0,0,0
202053365,0,0.0,0.0,0,1.71392,-0.217449,1.0673,0.0,0.0,0.0,0.0376214,0.0796483,0.195071,0.0,0.0,0.0,0.0,0.0,0.0,-1.41958,0.0,0.0,0.0,0.0,0.0,0,1,1,1,1,0,0,0,0,0,0,0
202058060,0,0.0,0.0,0,1.71413,-0.217053,1.0683,0.0,0.0,0.0,0.0416529,0.07904,0.19864,0.0,0.0,0.0,0.0,0.0,0.0,-1.41945,0.0,0.0,0.0,0.0,0.0,0,1,1,1,1,0,0,0,0,0,0,0
202063341,0,0.0,0.0,0,1.71435,-0.216664,1.0693,0.0,0.0,0.0,0.0435463,0.077635,0.200049,0.0,0.0,0.0,0.0,0.0,0.0,-1.41931,0.0,0.0,0.0,0.0,0.0,0,1,1,1,1,0,0,0,0,0,0,0
202068081,0,0.0,0.0,0,1.71457,-0.216263,1.07034,0.0,0.0,0.0,0.0444919,0.0801262,0.207104,0.0,0.0,0.0,0.0,0.0,0.0,-1.4192,0.0,0.0,0.0,0.0,0.0,0,1,1,1,1,0,0,0,0,0,0,0
202073008,0,0.0,0.0,0,1.71481,-0.21585,1.07142,0.0,0.0,0.0,0.0469699,0.0824134,0.215748,0.0,0.0,0.0,0.0,0.0,0.0,-1.41903,0.0,0.0,0.0,0.0,0.0,0,1,1,1,1,0,0,0,0,0,0,0
202077999,0,0.0,0.0,0,1.71505,-0.215444,1.07252,0.0,0.0,0.0,0.0484271,0.0811551,0.21929,0.0,0.0,0.0,0.0,0.0,0.0,-1.41879,0.0,0.0,0.0,0.0,0.0,0,1,1,1,1,0,0,0,0,0,0,0
202082988,0,0.0,0.0,0,1.71529,-0.215039,1.07362,0.0,0.0,0.0,0.0475327,0.0808433,0.220636,0.0,0.0,0.0,0.0,0.0,0.0,-1.41861,0.0,0.0,0.0,0.0,0.0,0,1,1,1,1,0,0,0,0,0,0,0
202088624,0,0.0,0.0,0,1.71553,-0.214622,1.07476,0.0,0.0,0.0,0.0484787,0.0831825,0.226928,0.0,0.0,0.0,0.0,0.0,0.0,-1.41845,0.0,0.0,0.0,0.0,0.0,0,1,1,1,1,0,0,0,0,0,0,0
202092997,0,0.0,0.0,0,1.7158,-0.214202,1.07592,0.0,0.0,0.0,0.0531619,0.083897,0.232727,0.0,0.0,0.0,0.0,0.0,0.0,-1.41816,0.0,0.0,0.0,0.0,0.0,0,1,1,1,1,0,0,0,0,0,0,0
202098120,0,0.0,0.0,0,1.71607,-0.213793,1.07709,0.0,0.0,0.0,0.0544485,0.0817928,0.232842,0.0,0.0,0.0,0.0,0.0,0.0,-1.41778,0.0,0.0,0.0,0.0,0.0,0,1,1,1,1,0,0,0,0,0,0,0
202103113,0,0.0,0.0,0,1.71635,-0.213384,1.07826,0.0,0.0,0.0,0.0556337,0.0816262,0.234475,0.0,0.0,0.0,0.0,0.0,0.0,-1.41743,0.0,0.0,0.0,0.0,0.0,0,1,1,1,1,0,0,0,0,0,0,0
202108008,0,0.0,0.0,0,1.71663,-0.212961,1.07947,0.0,0.0,0.0,0.056858,0.0844072,0.241462,0.0,0.0,0.0,0.0,0.0,0.0,-1.41709,0.0,0.0,0.0,0.0,0.0,0,1,1,1,1,0,0,0,0,0,0,0
202113072,0,0.0,0.0,0,1.71692,-0.21254,1.08071,0.0,0.0,0.0,0.0578225,0.0840139,0.247559,0.0,0.0,0.0,0.0,0.0,0.0,-1.41673,0.0,0.0,0.0,0.0,0.0,0,1,1,1,1,0,0,0,0,0,0,0
202118103,0,0.0,0.0,0,1.71721,-0.212129,1.08193,0.0,0.0,0.0,0.057639,0.0821514,0.2437,0.0,0.0,0.0,0.0,0.0,0.0,-1.41636,0.0,0.0,0.0,0.0,0.0,0,1,1,1,1,0,0,0,0,0,0,0
202123540,0,0.0,0.0,0,1.71751,-0.211716,1.08316,0.0,0.0,0.0,0.0601888,0.0825001,0.244156,0.0,0.0,0.0,0.0,0.0,0.0,-1.41598,0.0,0.0,0.0,0.0,0.0,0,1,1,1,1,0,0,0,0,0,0,0
202128231,0,0.0,0.0,0,1.71783,-0.21129,1.0844,0.0,0.0,0.0,0.0626401,0.0850283,0.248371,0.0,0.0,0.0,0.0,0.0,0.0,-1.41558,0.0,0.0,0.0,0.0,0.0,0,1,1,1,1,0,0,0,0,0,0,0
202133111,0,0.0,0.0,0,1.72048,-0.209561,1.07972,0.0,0.0,0.0,0.0655692,0.0844591,0.237448,0.0,0.0,0.0,0.0,0.0,0.0,-1.41554,0.0,0.0,0.0,0.0,0.0,0,1,1,1,1,0,0,0,0,0,0,0
202138300,0,0.0,0.0,0,1.7208,-0.209146,1.08089,0.0,0.0,0.0,0.0630735,0.082837,0.233899,0.0,0.0,0.0,0.0,0.0,0.0,-1.41518,0.0,0.0,0.0,0.0,0.0,0,1,1,1,1,0,0,0,0,0,0,0
202143461,0,0.0,0.0,0,1.72112,-0.20873,1.08205,0.0,0.0,0.0,0.0648673,0.0829727,0.232738,0.0,0.0,0.0,0.0,0.0,0.0,-1.41485,0.0,0.0,0.0,0.0,0.0,0,1,1,1,1,0,0,0,0,0,0,0
202148437,0,0.0,0.0,0,1.72146,-0.208308,1.08323,0.0,0.0,0.0,0.0674527,0.0842282,0.234925,0.0,0.0,0.0,0.0,0.0,0.0,-1.41451,0.0,0.0,0.0,0.0,0.0,0,1,1,1,1,0,0,0,0,0,0,0
202153105,0,0.0,0.0,0,1.72179,-0.207893,1.08444,0.0,0.0,0.0,0.0651552,0.0829615,0.241797,0.0,0.0,0.0,0.0,0.0,0.0,-1.41419,0.0,0.0,0.0,0.0,0.0,0,1,1,1,1,0,0,0,0,0,0,0
202158329,0,0.0,0.0,0,1.7221,-0.207483,1.08566,0.0,0.0,0.0,0.0626997,0.081919,0.242679,0.0,0.0,0.0,0.0,0.0,0.0,-1.41395,0.0,0.0,0.0,0.0,0.0,0,1,1,1,1,0,0,0,0,0,0,0
202163189,0,0.0,0.0,0,1.72242,-0.207073,1.08687,0.0,0.0,0.0,0.063592,0.0817977,0.241459,0.0,0.0,0.0,0.0,0.0,0.0,-1.41379,0.0,0.0,0.0,0.0,0.0,0,1,1,1,1,0,0,0,0,0,0,0
202168144,0,0.0,0.0,0,1.72275,-0.206661,1.08809,0.0,0.0,0.0,0.0656914,0.0823134,0.244005,0.0,0.0,0.0,0.0,0.0,0.0,-1.41363,0.0,0.0,0.0,0.0,0.0,0,1,1,1,1,0,0,0,0,0,0,0
202173276,0,0.0,0.0,0,1.72306,-0.206254,1.08933,0.0,0.0,0.0,0.0626129,0.0811945,0.248334,0.0,0.0,0.0,0.0,0.0,0.0,-1.41345,0.0,0.0,0.0,0.0,0.0,0,1,1,1,1,0,0,0,0,0,0,0
202178124,0,0.0,0.0,0,1.72337,-0.205855,1.09058,0.0,0.0,0.0,0.0602445,0.079739,0.250051,0.0,0.0,0.0,0.0,0.0,0.0,-1.41334,0.0,0.0,0.0,0.0,0.0,0,1,1,1,1,0,0,0,0,0,0,0
202183246,0,0.0,0.0,0,1.72368,-0.205458,1.09183,0.0,0.0,0.0,0.0634612,0.07922,0.248128,0.0,0.0,0.0,0.0,0.0,0.0,-1.41325,0.0,0.0,0.0,0.0,0.0,0,1,1,1,1,0,0,0,0,0,0,0
202188365,0,0.0,0.0,0,1.72401,-0.20506,1.09307,0.0,0.0,0.0,0.0650935,0.079464,0.247689,0.0,0.0,0.0,0.0,0.0,0.0,-1.41307,0.0,0.0,0.0,0.0,0.0,0,1,1,1,1,0,0,0,0,0,0,0
202193203,0,0.0,0.0,0,1.72432,-0.204667,1.09433,0.0,0.0,0.0,0.0611442,0.0784343,0.25202,0.0,0.0,0.0,0.0,0.0,0.0,-1.41287,0.0,0.0,0.0,0.0,0.0,0,1,1,1,1,0,0,0,0,0,0,0
202198294,0,0.0,0.0,0,1.72461,-0.20428,1.0956,0.0,0.0,0.0,0.0593067,0.0774564,0.253024,0.0,0.0,0.0,0.0,0.0,0.0,-1.41272,0.0,0.0,0.0,0.0,0.0,0,1,1,1,1,0,0,0,0,0,0,0
202203193,0,0.0,0.0,0,1.72493,-0.203894,1.09686,0.0,0.0,0.0,0.0632759,0.0769638,0.251841,0.0,0.0,0.0,0.0,0.0,0.0,-1.41256,0.0,0.0,0.0,0.0,0.0,0,1,1,1,1,0,0,0,0,0,0,0
202208277,0,0.0,0.0,0,1.72526,-0.203506,1.09812,0.0,0.0,0.0,0.0655544,0.0774103,0.252782,0.0,0.0,0.0,0.0,0.0,0.0,-1.41232,0.0,0.0,0.0,0.0,0.0,0,1,1,1,1,0,0,0,0,0,0,0
202213240,0,0.0,0.0,0,1.72556,-0.20312,1.09941,0.0,0.0,0.0,0.0603216,0.0771846,0.257963,0.0,0.0,0.0,0.0,0.0,0.0,-1.41206,0.0,0.0,0.0,0.0,0.0,0,1,1,1,1,0,0,0,0,0,0,0
202218277,0,0.0,0.0,0,1.72586,-0.202737,1.10072,0.0,0.0,0.0,0.0594215,0.0763824,0.259958,0.0,0.0,0.0,0.0,0.0,0.0,-1.41186,0.0,0.0,0.0,0.0,0.0,0,1,1,1,1,0,0,0,0,0,0,0
202223675,0,0.0,0.0,0,1.72617,-0.20236,1.102,0.0,0.0,0.0,0.0631361,0.0752823,0.256691,0.0,0.0,0.0,0.0,0.0,0.0,-1.41164,0.0,0.0,0.0,0.0,0.0,0,1,1,1,1,0,0,0,0,0,0,0
202228245,0,0.0,0.0,0,1.72649,-0.201989,1.10329,0.0,0.0,0.0,0.0633461,0.0741916,0.257323,0.0,0.0,0.0,0.0,0.0,0.0,-1.41136,0.0,0.0,0.0,0.0,0.0,0,1,1,1,1,0,0,0,0,0,0,0
202233855,0,0.0,0.0,0,1.72557,-0.200137,1.09493,0.0,0.0,0.0,0.0466042,0.0710932,0.245521,0.0,0.0,0.0,0.0,0.0,0.0,-1.41152,0.0,0.0,0.0,0.0,0.0,0,1,1,1,1,0,0,0,0,0,0,0
202238260,0,0.0,0.0,0,1.7258,-0.19978,1.09618,0.0,0.0,0.0,0.0457408,0.0711982,0.248686,0.0,0.0,0.0,0.0,0.0,0.0,-1.41139,0.0,0.0,0.0,0.0,0.0,0,1,1,1,1,0,0,0,0,0,0,0
202243552,0,0.0,0.0,0,1.72605,-0.199431,1.0974,0.0,0.0,0.0,0.0497389,0.0697889,0.244177,0.0,0.0,0.0,0.0,0.0,0.0,-1.41115,0.0,0.0,0.0,0.0,0.0,0,1,1,1,1,0,0,0,0,0,0,0
202248280,0,0.0,0.0,0,1.7263,-0.199085,1.09862,0.0,0.0,0.0,0.0493634,0.0689312,0.243626,0.0,0.0,0.0,0.0,0.0,0.0,-1.41082,0.0,0.0,0.0,0.0,0.0,0,1,1,1,1,0,0,0,0,0,0,0
202254221,0,0.0,0.0,0,1.72652,-0.198739,1.09988,0.0,0.0,0.0,0.0442972,0.0692056,0.250755,0.0,0.0,0.0,0.0,0.0,0.0,-1.41053,0.0,0.0,0.0,0.0,0.0,0,1,1,1,1,0,0,0,0,0,0,0
202258361,0,0.0,0.0,0,1.72673,-0.198394,1.10114,0.0,0.0,0.0,0.0426111,0.0687764,0.252944,0.0,0.0,0.0,0.0,0.0,0.0,-1.4103,0.0,0.0,0.0,0.0,0.0,0,1,1,1,1,0,0,0,0,0,0,0
202263455,0,0.0,0.0,0,1.72696,-0.198057,1.10239,0.0,0.0,0.0,0.045395,0.0672871,0.249713,0.0,0.0,0.0,0.0,0.0,0.0,-1.41002,0.0,0.0,0.0,0.0,0.0,0,1,1,1,1,0,0,0,0,0,0,0
202268341,0,0.0,0.0,0,1.72718,-0.197725,1.10364,0.0,0.0,0.0,0.0441121,0.0664709,0.249394,0.0,0.0,0.0,0.0,0.0,0.0,-1.40967,0.0,0.0,0.0,0.0,0.0,0,1,1,1,1,0,0,0,0,0,0,0
202273315,0,0.0,0.0,0,1.72738,-0.197388,1.10493,0.0,0.0,0.0,0.040229,0.0672505,0.256404,0.0,0.0,0.0,0.0,0.0,0.0,-1.40931,0.0,0.0,0.0,0.0,0.0,0,1,1,1,1,0,0,0,0,0,0,0
202278262,0,0.0,0.0,0,1.72759,-0.197054,1.10622,0.0,0.0,0.0,0.0411144,0.0666673,0.258541,0.0,0.0,0.0,0.0,0.0,0.0,-1.40892,0.0,0.0,0.0,0.0,0.0,0,1,1,1,1,0,0,0,0,0,0,0
202283605,0,0.0,0.0,0,1.72781,-0.196732,1.10749,0.0,0.0,0.0,0.0441352,0.0643019,0.254145,0.0,0.0,0.0,0.0,0.0,0.0,-1.40846,0.0,0.0,0.0,0.0,0.0,0,1,1,1,1,0,0,0,0,0,0,0
202288424,0,0.0,0.0,0,1.72803,-0.196415,1.10877,0.0,0.0,0.0,0.0437848,0.0632542,0.254121,0.0,0.0,0.0,0.0,0.0,0.0,-1.40797,0.0,0.0,0.0,0.0,0.0,0,1,1,1,1,0,0,0,0,0,0,0
202293345,0,0.0,0.0,0,1.72823,-0.196093,1.11007,0.0,0.0,0.0,0.0409345,0.0643658,0.260465,0.0,0.0,0.0,0.0,0.0,0.0,-1.40746,0.0,0.0,0.0,0.0,0.0,0,1,1,1,1,0,0,0,0,0,0,0
202298390,0,0.0,0.0,0,1.72844,-0.195775,1.11139,0.0,0.0,0.0,0.0407564,0.0634647,0.262904,0.0,0.0,0.0,0.0,0.0,0.0,-1.40697,0.0,0.0,0.0,0.0,0.0,0,1,1,1,1,0,0,0,0,0,0,0
202303350,0,0.0,0.0,0,1.72864,-0.195472,1.11268,0.0,0.0,0.0,0.0417104,0.0605727,0.257935,0.0,0.0,0.0,0.0,0.0,0.0,-1.40651,0.0,0.0,0.0,0.0,0.0,0,1,1,1,1,0,0,0,0,0,0,0
202308874,0,0.0,0.0,0,1.72886,-0.195173,1.11397,0.0,0.0,0.0,0.0438962,0.0596794,0.258018,0.0,0.0,0.0,0.0,0.0,0.0,-1.40604,0.0,0.0,0.0,0.0,0.0,0,1,1,1,1,0,0,0,0,0,0,0
202313344,0,0.0,0.0,0,1.72908,-0.194867,1.1153,0.0,0.0,0.0,0.0422456,0.0610035,0.264522,0.0,0.0,0.0,0.0,0.0,0.0,-1.40553,0.0,0.0,0.0,0.0,0.0,0,1,1,1,1,0,0,0,0,0,0,0
202318599,0,0.0,0.0,0,1.72929,-0.194565,1.11663,0.0,0.0,0.0,0.0421245,0.0604032,0.26607,0.0,0.0,0.0,0.0,0.0,0.0,-1.405,0.0,0.0,0.0,0.0,0.0,0,1,1,1,1,0,0,0,0,0,0,0
202323844,0,0.0,0.0,0,1.7295,-0.194277,1.11794,0.0,0.0,0.0,0.0418555,0.0573976,0.260982,0.0,0.0,0.0,0.0,0.0,0.0,-1.4045,0.0,0.0,0.0,0.0,0.0,0,1,1,1,1,0,0,0,0,0,0,0
202328376,0,0.0,0.0,0,1.72971,-0.193996,1.11923,0.0,0.0,0.0,0.0421726,0.0561327,0.257897,0.0,0.0,0.0,0.0,0.0,0.0,-1.40403,0.0,0.0,0.0,0.0,0.0,0,1,1,1,1,0,0,0,0,0,0,0
202333442,0,0.0,0.0,0,1.72991,-0.193708,1.12054,0.0,0.0,0.0,0.0412494,0.0575038,0.261796,0.0,0.0,0.0,0.0,0.0,0.0,-1.40357,0.0,0.0,0.0,0.0,0.0,0,1,1,1,1,0,0,0,0,0,0,0
202338440,0,0.0,0.0,0,1.7328,-0.193197,1.12903,0.0,0.0,0.0,0.0406071,0.0571406,0.272973,0.0,0.0,0.0,0.0,0.0,0.0,-1.4033,0.0,0.0,0.0,0.0,0.0,0,1,1,1,1,0,0,0,0,0,0,0
202343424,0,0.0,0.0,0,1.73301,-0.192925,1.13038,0.0,0.0,0.0,0.0401878,0.054245,0.269835,0.0,0.0,0.0,0.0,0.0,0.0,-1.40278,0.0,0.0,0.0,0.0,0.0,0,1,1,1,1,0,0,0,0,0,0,0
202348755,0,0.0,0.0,0,1.73321,-0.192659,1.13171,0.0,0.0,0.0,0.0416096,0.0532602,0.265703,0.0,0.0,0.0,0.0,0.0,0.0,-1.40227,0.0,0.0,0.0,0.0,0.0,0,1,1,1,1,0,0,0,0,0,0,0
202353436,0,0.0,0.0,0,1.73343,-0.192386,1.13305,0.0,0.0,0.0,0.0428001,0.0544701,0.267568,0.0,0.0,0.0,0.0,0.0,0.0,-1.40178,0.0,0.0,0.0,0.0,0.0,0,1,1,1,1,0,0,0,0,0,0,0
202358785,0,0.0,0.0,0,1.73364,-0.192113,1.13441,0.0,0.0,0.0,0.0417397,0.0545343,0.271589,0.0,0.0,0.0,0.0,0.0,0.0,-1.40127,0.0,0.0,0.0,0.0,0.0,0,1,1,1,1,0,0,0,0,0,0,0
202363489,0,0.0,0.0,0,1.73383,-0.191854,1.13576,0.0,0.0,0.0,0.0379341,0.0517696,0.269355,0.0,0.0,0.0,0.0,0.0,0.0,-1.40081,0.0,0.0,0.0,0.0,0.0,0,1,1,1,1,0,0,0,0,0,0,0
202368565,0,0.0,0.0,0,1.73401,-0.191603,1.13708,0.0,0.0,0.0,0.0370823,0.0499322,0.26366,0.0,0.0,0.0,0.0,0.0,0.0,-1.40044,0.0,0.0,0.0,0.0,0.0,0,1,1,1,1,0,0,0,0,0,0,0
202373453,0,0.0,0.0,0,1.73421,-0.191351,1.13839,0.0,0.0,0.0,0.0394226,0.0504885,0.262075,0.0,0.0,0.0,0.0,0.0,0.0,-1.4001,0.0,0.0,0.0,0.0,0.0,0,1,1,1,1,0,0,0,0,0,0,0
202378487,0,0.0,0.0,0,1.73441,-0.1911,1.13972,0.0,0.0,0.0,0.0387941,0.0501171,0.263978,0.0,0.0,0.0,0.0,0.0,0.0,-1.39974,0.0,0.0,0.0,0.0,0.0,0,1,1,1,1,0,0,0,0,0,0,0
202383444,0,0.0,0.0,0,1.73458,-0.190857,1.14104,0.0,0.0,0.0,0.0356847,0.0484772,0.264489,0.0,0.0,0.0,0.0,0.0,0.0,-1.3994,0.0,0.0,0.0,0.0,0.0,0,1,1,1,1,0,0,0,0,0,0,0
202388784,0,0.0,0.0,0,1.73476,-0.190622,1.14235,0.0,0.0,0.0,0.0353094,0.0469036,0.260949,0.0,0.0,0.0,0.0,0.0,0.0,-1.39911,0.0,0.0,0.0,0.0,0.0,0,1,1,1,1,0,0,0,0,0,0,0
202393556,0,0.0,0.0,0,1.73495,-0.190389,1.14363,0.0,0.0,0.0,0.0372286,0.0464603,0.256531,0.0,0.0,0.0,0.0,0.0,0.0,-1.39883,0.0,0.0,0.0,0.0,0.0,0,1,1,1,1,0,0,0,0,0,0,0
202398599,0,0.0,0.0,0,1.73513,-0.190157,1.14491,0.0,0.0,0.0,0.0373021,0.0464563,0.255244,0.0,0.0,0.0,0.0,0.0,0.0,-1.39853,0.0,0.0,0.0,0.0,0.0,0,1,1,1,1,0,0,0,0,0,0,0
202403551,0,0.0,0.0,0,1.73531,-0.18993,1.14619,0.0,0.0,0.0,0.034542,0.0453647,0.256237,0.0,0.0,0.0,0.0,0.0,0.0,-1.39821,0.0,0.0,0.0,0.0,0.0,0,1,1,1,1,0,0,0,0,0,0,0
202408557,0,0.0,0.0,0,1.73547,-0.189709,1.14747,0.0,0.0,0.0,0.0331963,0.0440286,0.255307,0.0,0.0,0.0,0.0,0.0,0.0,-1.39787,0.0,0.0,0.0,0.0,0.0,0,1,1,1,1,0,0,0,0,0,0,0
202413517,0,0.0,0.0,0,1.73564,-0.189494,1.14873,0.0,0.0,0.0,0.0342251,0.0428908,0.250784,0.0,0.0,0.0,0.0,0.0,0.0,-1.39754,0.0,0.0,0.0,0.0,0.0,0,1,1,1,1,0,0,0,0,0,0,0
202418585,0,0.0,0.0,0,1.73582,-0.18928,1.14997,0.0,0.0,0.0,0.0344081,0.0427749,0.247516,0.0,0.0,0.0,0.0,0.0,0.0,-1.39721,0.0,0.0,0.0,0.0,0.0,0,1,1,1,1,0,0,0,0,0,0,0
202423898,0,0.0,0.0,0,1.73598,-0.189069,1.15122,0.0,0.0,0.0,0.031763,0.0421669,0.249115,0.0,0.0,0.0,0.0,0.0,0.0,-1.39686,0.0,0.0,0.0,0.0,0.0,0,1,1,1,1,0,0,0,0,0,0,0
202428577,0,0.0,0.0,0,1.73611,-0.188863,1.15246,0.0,0.0,0.0,0.0269467,0.0412185,0.248989,0.0,0.0,0.0,0.0,0.0,0.0,-1.39657,0.0,0.0,0.0,0.0,0.0,0,1,1,1,1,0,0,0,0,0,0,0
202433791,0,0.0,0.0,0,1.73625,-0.188661,1.15369,0.0,0.0,0.0,0.026841,0.0402291,0.244905,0.0,0.0,0.0,0.0,0.0,0.0,-1.39635,0.0,0.0,0.0,0.0,0.0,0,1,1,1,1,0,0,0,0,0,0,0
202438577,0,0.0,0.0,0,1.73815,-0.189839,1.15758,0.0,0.0,0.0,0.0324682,0.0341422,0.248734,0.0,0.0,0.0,0.0,0.0,0.0,-1.39654,0.0,0.0,0.0,0.0,0.0,0,1,1,1,1,0,0,0,0,0,0,0
202443688,0,0.0,0.0,0,1.73831,-0.18967,1.15881,0.0,0.0,0.0,0.0314045,0.0337522,0.246878,0.0,0.0,0.0,0.0,0.0,0.0,-1.3962,0.0,0.0,0.0,0.0,0.0,0,1,1,1,1,0,0,0,0,0,0,0
202448591,0,0.0,0.0,0,1.73844,-0.189504,1.16006,0.0,0.0,0.0,0.0268685,0.0332452,0.24927,0.0,0.0,0.0,0.0,0.0,0.0,-1.39585,0.0,0.0,0.0,0.0,0.0,0,1,1,1,1,0,0,0,0,0,0,0
202453841,0,0.0,0.0,0,1.73857,-0.189341,1.16131,0.0,0.0,0.0,0.0251879,0.032413,0.248267,0.0,0.0,0.0,0.0,0.0,0.0,-1.39558,0.0,0.0,0.0,0.0,0.0,0,1,1,1,1,0,0,0,0,0,0,0
202458955,0,0.0,0.0,0,1.7387,-0.189184,1.16253,0.0,0.0,0.0,0.0272762,0.0314786,0.243834,0.0,0.0,0.0,0.0,0.0,0.0,-1.39532,0.0,0.0,0.0,0.0,0.0,0,1,1,1,1,0,0,0,0,0,0,0
202463730,0,0.0,0.0,0,1.73884,-0.189027,1.16372,0.0,0.0,0.0,0.0269499,0.0313159,0.23892,0.0,0.0,0.0,0.0,0.0,0.0,-1.39499,0.0,0.0,0.0,0.0,0.0,0,1,1,1,1,0,0,0,0,0,0,0
202468675,0,0.0,0.0,0,1.73895,-0.18887,1.16492,0.0,0.0,0.0,0.0219667,0.0313847,0.238117,0.0,0.0,0.0,0.0,0.0,0.0,-1.39467,0.0,0.0,0.0,0.0,0.0,0,1,1,1,1,0,0,0,0,0,0,0
202473781,0,0.0,0.0,0,1.73904,-0.188714,1.1661,0.0,0.0,0.0,0.0191494,0.0311683,0.236456,0.0,0.0,0.0,0.0,0.0,0.0,-1.39441,0.0,0.0,0.0,0.0,0.0,0,1,1,1,1,0,0,0,0,0,0,0
202478636,0,0.0,0.0,0,1.73914,-0.188565,1.16726,0.0,0.0,0.0,0.0196745,0.0297359,0.231607,0.0,0.0,0.0,0.0,0.0,0.0,-1.39418,0.0,0.0,0.0,0.0,0.0,0,1,1,1,1,0,0,0,0,0,0,0
202483612,0,0.0,0.0,0,1.73925,-0.188421,1.16839,0.0,0.0,0.0,0.0205688,0.0286452,0.226655,0.0,0.0,0.0,0.0,0.0,0.0,-1.39392,0.0,0.0,0.0,0.0,0.0,0,1,1,1,1,0,0,0,0,0,0,0
202488781,0,0.0,0.0,0,1.73933,-0.188276,1.16953,0.0,0.0,0.0,0.0175048,0.0290668,0.226337,0.0,0.0,0.0,0.0,0.0,0.0,-1.39362,0.0,0.0,0.0,0.0,0.0,0,1,1,1,1,0,0,0,0,0,0,0
202493872,0,0.0,0.0,0,1.73942,-0.188122,1.17067,0.0,0.0,0.0,0.0161623,0.030744,0.22857,0.0,0.0,0.0,0.0,0.0,0.0,-1.39328,0.0,0.0,0.0,0.0,0.0,0,1,1,1,1,0,0,0,0,0,0,0
202498996,0,0.0,0.0,0,1.7395,-0.187971,1.1718,0.0,0.0,0.0,0.0177331,0.0301487,0.225698,0.0,0.0,0.0,0.0,0.0,0.0,-1.39287,0.0,0.0,0.0,0.0,0.0,0,1,1,1,1,0,0,0,0,0,0,0
202503762,0,0.0,0.0,0,1.7396,-0.187831,1.17291,0.0,0.0,0.0,0.0191371,0.0278153,0.220736,0.0,0.0,0.0,0.0,0.0,0.0,-1.39242,0.0,0.0,0.0,0.0,0.0,0,1,1,1,1,0,0,0,0,0,0,0
202508629,0,0.0,0.0,0,1.73969,-0.187693,1.17401,0.0,0.0,0.0,0.0173103,0.0277415,0.219364,0.0,0.0,0.0,0.0,0.0,0.0,-1.39198,0.0,0.0,0.0,0.0,0.0,0,1,1,1,1,0,0,0,0,0,0,0
202513797,0,0.0,0.0,0,1.73976,-0.187545,1.17512,0.0,0.0,0.0,0.0148396,0.0293851,0.221771,0.0,0.0,0.0,0.0,0.0,0.0,-1.39154,0.0,0.0,0.0,0.0,0.0,0,1,1,1,1,0,0,0,0,0,0,0
202518727,0,0.0,0.0,0,1.73984,-0.187397,1.17623,0.0,0.0,0.0,0.0150966,0.0296661,0.222715,0.0,0.0,0.0,0.0,0.0,0.0,-1.39106,0.0,0.0,0.0,0.0,0.0,0,1,1,1,1,0,0,0,0,0,0,0
202524033,0,0.0,0.0,0,1.73992,-0.187257,1.17733,0.0,0.0,0.0,0.0167806,0.0279741,0.218484,0.0,0.0,0.0,0.0,0.0,0.0,-1.39053,0.0,0.0,0.0,0.0,0.0,0,1,1,1,1,0,0,0,0,0,0,0
202528935,0,0.0,0.0,0,1.74,-0.187125,1.17841,0.0,0.0,0.0,0.01561,0.0262495,0.216015,0.0,0.0,0.0,0.0,0.0,0.0,-1.38999,0.0,0.0,0.0,0.0,0.0,0,1,1,1,1,0,0,0,0,0,0,0
202534051,0,0.0,0.0,0,1.74016,-0.186218,1.18271,0.0,0.0,0.0,0.00901948,0.0211124,0.231297,0.0,0.0,0.0,0.0,0.0,0.0,-1.38967,0.0,0.0,0.0,0.0,0.0,0,1,1,1,1,0,0,0,0,0,0,0
202538825,0,0.0,0.0,0,1.7402,-0.186105,1.18387,0.0,0.0,0.0,0.00869157,0.0224926,0.231213,0.0,0.0,0.0,0.0,0.0,0.0,-1.38907,0.0,0.0,0.0,0.0,0.0,0,1,1,1,1,0,0,0,0,0,0,0
202553731,0,0.0,0.0,0,1.7403,-0.185807,1.18718,0.0,0.0,0.0,0.00464871,0.0195414,0.21495,0.0,0.0,0.0,0.0,0.0,0.0,-1.38732,0.0,0.0,0.0,0.0,0.0,0,1,1,1,1,0,0,0,0,0,0,0
202558820,0,0.0,0.0,0,1.74032,-0.185701,1.18825,0.0,0.0,0.0,0.00430311,0.0211077,0.214668,0.0,0.0,0.0,0.0,0.0,0.0,-1.38673,0.0,0.0,0.0,0.0,0.0,0,1,1,1,1,0,0,0,0,0,0,0
202563743,0,0.0,0.0,0,1.74035,-0.185593,1.18932,0.0,0.0,0.0,0.00451803,0.0216912,0.212479,0.0,0.0,0.0,0.0,0.0,0.0,-1.3861,0.0,0.0,0.0,0.0,0.0,0,1,1,1,1,0,0,0,0,0,0,0
202569123,0,0.0,0.0,0,1.74037,-0.185494,1.19035,0.0,0.0,0.0,0.00396417,0.019704,0.206261,0.0,0.0,0.0,0.0,0.0,0.0,-1.38548,0.0,0.0,0.0,0.0,0.0,0,1,1,1,1,0,0,0,0,0,0,0
202573840,0,0.0,0.0,0,1.74038,-0.185398,1.19136,0.0,0.0,0.0,0.00282237,0.0192131,0.202522,0.0,0.0,0.0,0.0,0.0,0.0,-1.38486,0.0,0.0,0.0,0.0,0.0,0,1,1,1,1,0,0,0,0,0,0,0
202579246,0,0.0,0.0,0,1.74039,-0.185293,1.19238,0.0,0.0,0.0,0.00242666,0.0209383,0.202749,0.0,0.0,0.0,0.0,0.0,0.0,-1.38426,0.0,0.0,0.0,0.0,0.0,0,1,1,1,1,0,0,0,0,0,0,0
202584110,0,0.0,0.0,0,1.74041,-0.185182,1.1934,0.0,0.0,0.0,0.00331901,0.0221135,0.203904,0.0,0.0,0.0,0.0,0.0,0.0,-1.38365,0.0,0.0,0.0,0.0,0.0,0,1,1,1,1,0,0,0,0,0,0,0
202588810,0,0.0,0.0,0,1.74043,-0.185077,1.19441,0.0,0.0,0.0,0.00423742,0.0209818,0.201546,0.0,0.0,0.0,0.0,0.0,0.0,-1.38303,0.0,0.0,0.0,0.0,0.0,0,1,1,1,1,0,0,0,0,0,0,0
202599019,0,0.0,0.0,0,1.74046,-0.184881,1.19636,0.0,0.0,0.0,0.00201994,0.0196368,0.19369,0.0,0.0,0.0,0.0,0.0,0.0,-1.38186,0.0,0.0,0.0,0.0,0.0,0,1,1,1,1,0,0,0,0,0,0,0
202604677,0,0.0,0.0,0,1.74047,-0.184776,1.19733,0.0,0.0,0.0,0.00156627,0.0210423,0.193761,0.0,0.0,0.0,0.0,0.0,0.0,-1.3813,0.0,0.0,0.0,0.0,0.0,0,1,1,1,1,0,0,0,0,0,0,0
202608996,0,0.0,0.0,0,1.74048,-0.184671,1.19829,0.0,0.0,0.0,0.00295596,0.021018,0.190738,0.0,0.0,0.0,0.0,0.0,0.0,-1.3807,0.0,0.0,0.0,0.0,0.0,0,1,1,1,1,0,0,0,0,0,0,0
202614198,0,0.0,0.0,0,1.74049,-0.184572,1.19922,0.0,0.0,0.0,0.00261137,0.0197188,0.185348,0.0,0.0,0.0,0.0,0.0,0.0,-1.38004,0.0,0.0,0.0,0.0,0.0,0,1,1,1,1,0,0,0,0,0,0,0
202618862,0,0.0,0.0,0,1.7405,-0.184476,1.20012,0.0,0.0,0.0,0.0016963,0.019162,0.180871,0.0,0.0,0.0,0.0,0.0,0.0,-1.37941,0.0,0.0,0.0,0.0,0.0,0,1,1,1,1,0,0,0,0,0,0,0
202624110,0,0.0,0.0,0,1.7405,-0.184373,1.20101,0.0,0.0,0.0,-0.000318962,0.0206047,0.178066,0.0,0.0,0.0,0.0,0.0,0.0,-1.37885,0.0,0.0,0.0,0.0,0.0,0,1,1,1,1,0,0,0,0,0,0,0
202628865,0,0.0,0.0,0,1.7405,-0.184266,1.2019,0.0,0.0,0.0,-0.000512054,0.0214105,0.176155,0.0,0.0,0.0,0.0,0.0,0.0,-1.37832,0.0,0.0,0.0,0.0,0.0,0,1,1,1,1,0,0,0,0,0,0,0
202633869,0,0.0,0.0,0,1.74049,-0.184161,1.20276,0.0,0.0,0.0,-0.000872011,0.0209373,0.173016,0.0,0.0,0.0,0.0,0.0,0.0,-1.37779,0.0,0.0,0.0,0.0,0.0,0,1,1,1,1,0,0,0,0,0,0,0
202639489,0,0.0,0.0,0,1.74049,-0.184054,1.20361,0.0,0.0,0.0,-1.47408e-05,0.0213761,0.168974,0.0,0.0,0.0,0.0,0.0,0.0,-1.37726,0.0,0.0,0.0,0.0,0.0,0,1,1,1,1,0,0,0,0,0,0,0
202644346,0,0.0,0.0,0,1.74172,-0.184366,1.20575,0.0,0.0,0.0,0.00226931,0.0158412,0.174866,0.0,0.0,0.0,0.0,0.0,0.0,-1.37699,0.0,0.0,0.0,0.0,0.0,0,1,1,1,1,0,0,0,0,0,0,0
202649154,0,0.0,0.0,0,1.74173,-0.184286,1.20661,0.0,0.0,0.0,0.00141284,0.0159525,0.171362,0.0,0.0,0.0,0.0,0.0,0.0,-1.37646,0.0,0.0,0.0,0.0,0.0,0,1,1,1,1,0,0,0,0,0,0,0
202653920,0,0.0,0.0,0,1.74174,-0.184209,1.20745,0.0,0.0,0.0,0.00116934,0.0153382,0.16771,0.0,0.0,0.0,0.0,0.0,0.0,-1.37593,0.0,0.0,0.0,0.0,0.0,0,1,1,1,1,0,0,0,0,0,0,0
202659002,0,0.0,0.0,0,1.74174,-0.184137,1.20827,0.0,0.0,0.0,0.000221053,0.0145249,0.163705,0.0,0.0,0.0,0.0,0.0,0.0,-1.37542,0.0,0.0,0.0,0.0,0.0,0,1,1,1,1,0,0,0,0,0,0,0
202663939,0,0.0,0.0,0,1.74174,-0.184061,1.20906,0.0,0.0,0.0,-0.000303535,0.015185,0.158291,0.0,0.0,0.0,0.0,0.0,0.0,-1.37495,0.0,0.0,0.0,0.0,0.0,0,1,1,1,1,0,0,0,0,0,0,0
202668960,0,0.0,0.0,0,1.74173,-0.183981,1.20984,0.0,0.0,0.0,-0.000625841,0.0159007,0.154899,0.0,0.0,0.0,0.0,0.0,0.0,-1.37451,0.0,0.0,0.0,0.0,0.0,0,1,1,1,1,0,0,0,0,0,0,0
202674123,0,0.0,0.0,0,1.74173,-0.183901,1.2106,0.0,0.0,0.0,-0.00101166,0.0158851,0.152135,0.0,0.0,0.0,0.0,0.0,0.0,-1.37406,0.0,0.0,0.0,0.0,0.0,0,1,1,1,1,0,0,0,0,0,0,0
202678985,0,0.0,0.0,0,1.74172,-0.183827,1.21136,0.0,0.0,0.0,-0.00253298,0.0148573,0.150584,0.0,0.0,0.0,0.0,0.0,0.0,-1.37363,0.0,0.0,0.0,0.0,0.0,0,1,1,1,1,0,0,0,0,0,0,0
202684268,0,0.0,0.0,0,1.7417,-0.183752,1.2121,0.0,0.0,0.0,-0.00396558,0.0150454,0.148228,0.0,0.0,0.0,0.0,0.0,0.0,-1.37328,0.0,0.0,0.0,0.0,0.0,0,1,1,1,1,0,0,0,0,0,0,0
202688940,0,0.0,0.0,0,1.74168,-0.183669,1.21283,0.0,0.0,0.0,-0.00262765,0.0164235,0.145832,0.0,0.0,0.0,0.0,0.0,0.0,-1.37295,0.0,0.0,0.0,0.0,0.0,0,1,1,1,1,0,0,0,0,0,0,0
202698993,0,0.0,0.0,0,1.74164,-0.183499,1.21427,0.0,0.0,0.0,-0.00600464,0.0167238,0.144476,0.0,0.0,0.0,0.0,0.0,0.0,-1.37228,0.0,0.0,0.0,0.0,0.0,0,1,1,1,1,0,0,0,0,0,0,0
202704163,0,0.0,0.0,0,1.7416,-0.183418,1.21499,0.0,0.0,0.0,-0.00743162,0.0160424,0.143288,0.0,0.0,0.0,0.0,0.0,0.0,-1.37199,0.0,0.0,0.0,0.0,0.0,0,1,1,1,1,0,0,0,0,0,0,0
202708955,0,0.0,0.0,0,1.74157,-0.183333,1.2157,0.0,0.0,0.0,-0.0056693,0.01704,0.14042,0.0,0.0,0.0,0.0,0.0,0.0,-1.37171,0.0,0.0,0.0,0.0,0.0,0,1,1,1,1,0,0,0,0,0,0,0
202714174,0,0.0,0.0,0,1.74155,-0.183243,1.2164,0.0,0.0,0.0,-0.00348413,0.0180125,0.139667,0.0,0.0,0.0,0.0,0.0,0.0,-1.37143,0.0,0.0,0.0,0.0,0.0,0,1,1,1,1,0,0,0,0,0,0,0
202719195,0,0.0,0.0,0,1.74153,-0.183151,1.21709,0.0,0.0,0.0,-0.00533482,0.0183236,0.138714,0.0,0.0,0.0,0.0,0.0,0.0,-1.37111,0.0,0.0,0.0,0.0,0.0,0,1,1,1,1,0,0,0,0,0,0,0
202724276,0,0.0,0.0,0,1.74148,-0.183062,1.21778,0.0,0.0,0.0,-0.00975021,0.0177149,0.136866,0.0,0.0,0.0,0.0,0.0,0.0,-1.37081,0.0,0.0,0.0,0.0,0.0,0,1,1,1,1,0,0,0,0,0,0,0
202729619,0,0.0,0.0,0,1.74142,-0.182971,1.21845,0.0,0.0,0.0,-0.0118831,0.0182677,0.134055,0.0,0.0,0.0,0.0,0.0,0.0,-1.3706,0.0,0.0,0.0,0.0,0.0,0,1,1,1,1,0,0,0,0,0,0,0
202734021,0,0.0,0.0,0,1.74137,-0.182874,1.2191,0.0,0.0,0.0,-0.00948927,0.0192998,0.130177,0.0,0.0,0.0,0.0,0.0,0.0,-1.37043,0.0,0.0,0.0,0.0,0.0,0,1,1,1,1,0,0,0,0,0,0,0
202739156,0,0.0,0.0,0,1.74133,-0.182775,1.21973,0.0,0.0,0.0,-0.00777172,0.0197422,0.12597,0.0,0.0,0.0,0.0,0.0,0.0,-1.37022,0.0,0.0,0.0,0.0,0.0,0,1,1,1,1,0,0,0,0,0,0,0
202749109,0,0.0,0.0,0,1.74158,-0.18055,1.22386,0.0,0.0,0.0,-0.0154797,0.017419,0.13275,0.0,0.0,0.0,0.0,0.0,0.0,-1.36993,0.0,0.0,0.0,0.0,0.0,0,1,1,1,1,0,0,0,0,0,0,0
202754393,0,0.0,0.0,0,1.74151,-0.180456,1.2245,0.0,0.0,0.0,-0.0135475,0.0188218,0.128593,0.0,0.0,0.0,0.0,0.0,0.0,-1.36978,0.0,0.0,0.0,0.0,0.0,0,1,1,1,1,0,0,0,0,0,0,0
202759310,0,0.0,0.0,0,1.74146,-0.18036,1.22511,0.0,0.0,0.0,-0.0103083,0.019136,0.122403,0.0,0.0,0.0,0.0,0.0,0.0,-1.36957,0.0,0.0,0.0,0.0,0.0,0,1,1,1,1,0,0,0,0,0,0,0
202764240,0,0.0,0.0,0,1.74141,-0.180264,1.2257,0.0,0.0,0.0,-0.0103323,0.0191127,0.116852,0.0,0.0,0.0,0.0,0.0,0.0,-1.36927,0.0,0.0,0.0,0.0,0.0,0,1,1,1,1,0,0,0,0,0,0,0
202769194,0,0.0,0.0,0,1.74134,-0.180166,1.22627,0.0,0.0,0.0,-0.0143687,0.0195375,0.114549,0.0,0.0,0.0,0.0,0.0,0.0,-1.36898,0.0,0.0,0.0,0.0,0.0,0,1,1,1,1,0,0,0,0,0,0,0
202774507,0,0.0,0.0,0,1.74127,-0.180064,1.22683,0.0,0.0,0.0,-0.0141312,0.0205705,0.110358,0.0,0.0,0.0,0.0,0.0,0.0,-1.36873,0.0,0.0,0.0,0.0,0.0,0,1,1,1,1,0,0,0,0,0,0,0
202779207,0,0.0,0.0,0,1.74121,-0.17996,1.22736,0.0,0.0,0.0,-0.0110859,0.0207103,0.106733,0.0,0.0,0.0,0.0,0.0,0.0,-1.36847,0.0,0.0,0.0,0.0,0.0,0,1,1,1,1,0,0,0,0,0,0,0
202784531,0,0.0,0.0,0,1.74117,-0.179861,1.22788,0.0,0.0,0.0,-0.00919907,0.0196688,0.102763,0.0,0.0,0.0,0.0,0.0,0.0,-1.36819,0.0,0.0,0.0,0.0,0.0,0,1,1,1,1,0,0,0,0,0,0,0
202789305,0,0.0,0.0,0,1.74112,-0.179762,1.22839,0.0,0.0,0.0,-0.00983465,0.0198469,0.102548,0.0,0.0,0.0,0.0,0.0,0.0,-1.36788,0.0,0.0,0.0,0.0,0.0,0,1,1,1,1,0,0,0,0,0,0,0
202794100,0,0.0,0.0,0,1.74105,-0.179656,1.2289,0.0,0.0,0.0,-0.0141394,0.0211506,0.102686,0.0,0.0,0.0,0.0,0.0,0.0,-1.36763,0.0,0.0,0.0,0.0,0.0,0,1,1,1,1,0,0,0,0,0,0,0
202804356,0,0.0,0.0,0,1.74091,-0.179437,1.22989,0.0,0.0,0.0,-0.0124301,0.0214011,0.0956111,0.0,0.0,0.0,0.0,0.0,0.0,-1.36721,0.0,0.0,0.0,0.0,0.0,0,1,1,1,1,0,0,0,0,0,0,0
202809188,0,0.0,0.0,0,1.74086,-0.179333,1.23034,0.0,0.0,0.0,-0.010959,0.0206771,0.0896713,0.0,0.0,0.0,0.0,0.0,0.0,-1.36691,0.0,0.0,0.0,0.0,0.0,0,1,1,1,1,0,0,0,0,0,0,0
202814197,0,0.0,0.0,0,1.74079,-0.179226,1.23077,0.0,0.0,0.0,-0.0122265,0.021471,0.0875813,0.0,0.0,0.0,0.0,0.0,0.0,-1.36653,0.0,0.0,0.0,0.0,0.0,0,1,1,1,1,0,0,0,0,0,0,0
202819368,0,0.0,0.0,0,1.74072,-0.179106,1.2312,0.0,0.0,0.0,-0.0145215,0.0238032,0.0854806,0.0,0.0,0.0,0.0,0.0,0.0,-1.36617,0.0,0.0,0.0,0.0,0.0,0,1,1,1,1,0,0,0,0,0,0,0
202824476,0,0.0,0.0,0,1.74065,-0.178985,1.2316,0.0,0.0,0.0,-0.0136528,0.0241666,0.0797508,0.0,0.0,0.0,0.0,0.0,0.0,-1.36583,0.0,0.0,0.0,0.0,0.0,0,1,1,1,1,0,0,0,0,0,0,0
202829773,0,0.0,0.0,0,1.7406,-0.178872,1.23196,0.0,0.0,0.0,-0.0103716,0.0225341,0.0712725,0.0,0.0,0.0,0.0,0.0,0.0,-1.36545,0.0,0.0,0.0,0.0,0.0,0,1,1,1,1,0,0,0,0,0,0,0
202834816,0,0.0,0.0,0,1.74055,-0.178764,1.23229,0.0,0.0,0.0,-0.0093377,0.0216699,0.0659306,0.0,0.0,0.0,0.0,0.0,0.0,-1.36505,0.0,0.0,0.0,0.0,0.0,0,1,1,1,1,0,0,0,0,0,0,0
202839574,0,0.0,0.0,0,1.74201,-0.177026,1.23421,0.0,0.0,0.0,-0.01058,0.0191878,0.0773963,0.0,0.0,0.0,0.0,0.0,0.0,-1.36452,0.0,0.0,0.0,0.0,0.0,0,1,1,1,1,0,0,0,0,0,0,0
202849441,0,0.0,0.0,0,1.74191,-0.176809,1.23496,0.0,0.0,0.0,-0.00861426,0.0214045,0.0718706,0.0,0.0,0.0,0.0,0.0,0.0,-1.36364,0.0,0.0,0.0,0.0,0.0,0,1,1,1,1,0,0,0,0,0,0,0
202854823,0,0.0,0.0,0,1.74188,-0.176708,1.23528,0.0,0.0,0.0,-0.00555453,0.0201038,0.0648339,0.0,0.0,0.0,0.0,0.0,0.0,-1.36314,0.0,0.0,0.0,0.0,0.0,0,1,1,1,1,0,0,0,0,0,0,0
202859742,0,0.0,0.0,0,1.74186,-0.176609,1.2356,0.0,0.0,0.0,-0.00503802,0.019914,0.0627086,0.0,0.0,0.0,0.0,0.0,0.0,-1.36263,0.0,0.0,0.0,0.0,0.0,0,1,1,1,1,0,0,0,0,0,0,0
202864265,0,0.0,0.0,0,1.74183,-0.1765,1.23591,0.0,0.0,0.0,-0.00640567,0.0218038,0.0630052,0.0,0.0,0.0,0.0,0.0,0.0,-1.36212,0.0,0.0,0.0,0.0,0.0,0,1,1,1,1,0,0,0,0,0,0,0
202869265,0,0.0,0.0,0,1.7418,-0.17638,1.23622,0.0,0.0,0.0,-0.00561124,0.0239168,0.0613924,0.0,0.0,0.0,0.0,0.0,0.0,-1.36155,0.0,0.0,0.0,0.0,0.0,0,1,1,1,1,0,0,0,0,0,0,0
202874275,0,0.0,0.0,0,1.74178,-0.17626,1.2365,0.0,0.0,0.0,-0.00407596,0.0239875,0.0549079,0.0,0.0,0.0,0.0,0.0,0.0,-1.36091,0.0,0.0,0.0,0.0,0.0,0,1,1,1,1,0,0,0,0,0,0,0
202879249,0,0.0,0.0,0,1.74177,-0.176147,1.23673,0.0,0.0,0.0,-0.000911208,0.0224307,0.0471013,0.0,0.0,0.0,0.0,0.0,0.0,-1.36022,0.0,0.0,0.0,0.0,0.0,0,1,1,1,1,0,0,0,0,0,0,0
202884601,0,0.0,0.0,0,1.74178,-0.176031,1.23695,0.0,0.0,0.0,0.0011521,0.023186,0.0441288,0.0,0.0,0.0,0.0,0.0,0.0,-1.35951,0.0,0.0,0.0,0.0,0.0,0,1,1,1,1,0,0,0,0,0,0,0
202889309,0,0.0,0.0,0,1.74179,-0.175903,1.23716,0.0,0.0,0.0,0.00245543,0.0255372,0.0417921,0.0,0.0,0.0,0.0,0.0,0.0,-1.35882,0.0,0.0,0.0,0.0,0.0,0,1,1,1,1,0,0,0,0,0,0,0
202894839,0,0.0,0.0,0,1.7418,-0.175769,1.23735,0.0,0.0,0.0,0.00137282,0.0267444,0.0386705,0.0,0.0,0.0,0.0,0.0,0.0,-1.35813,0.0,0.0,0.0,0.0,0.0,0,1,1,1,1,0,0,0,0,0,0,0
202899512,0,0.0,0.0,0,1.74179,-0.175645,1.23752,0.0,0.0,0.0,-0.000653279,0.0248649,0.0328628,0.0,0.0,0.0,0.0,0.0,0.0,-1.35746,0.0,0.0,0.0,0.0,0.0,0,1,1,1,1,0,0,0,0,0,0,0
202904302,0,0.0,0.0,0,1.74179,-0.175528,1.23766,0.0,0.0,0.0,-0.00122062,0.0233267,0.0271675,0.0,0.0,0.0,0.0,0.0,0.0,-1.35685,0.0,0.0,0.0,0.0,0.0,0,1,1,1,1,0,0,0,0,0,0,0
202909386,0,0.0,0.0,0,1.74179,-0.175408,1.23778,0.0,0.0,0.0,0.00023243,0.0238897,0.0243479,0.0,0.0,0.0,0.0,0.0,0.0,-1.35628,0.0,0.0,0.0,0.0,0.0,0,1,1,1,1,0,0,0,0,0,0,0
202914380,0,0.0,0.0,0,1.7418,-0.175279,1.23789,0.0,0.0,0.0,0.00278052,0.025893,0.0225479,0.0,0.0,0.0,0.0,0.0,0.0,-1.35571,0.0,0.0,0.0,0.0,0.0,0,1,1,1,1,0,0,0,0,0,0,0
202919384,0,0.0,0.0,0,1.74182,-0.175146,1.23799,0.0,0.0,0.0,0.00281729,0.0265253,0.0203036,0.0,0.0,0.0,0.0,0.0,0.0,-1.35513,0.0,0.0,0.0,0.0,0.0,0,1,1,1,1,0,0,0,0,0,0,0
202925343,0,0.0,0.0,0,1.74182,-0.175017,1.23807,0.0,0.0,0.0,-3.24283e-05,0.0256667,0.0146749,0.0,0.0,0.0,0.0,0.0,0.0,-1.35455,0.0,0.0,0.0,0.0,0.0,0,1,1,1,1,0,0,0,0,0,0,0
202929441,0,0.0,0.0,0,1.74182,-0.174894,1.23812,0.0,0.0,0.0,-0.000106878,0.0246836,0.0110651,0.0,0.0,0.0,0.0,0.0,0.0,-1.35397,0.0,0.0,0.0,0.0,0.0,0,1,1,1,1,0,0,0,0,0,0,0
202934446,0,0.0,0.0,0,1.74182,-0.174764,1.23816,0.0,0.0,0.0,0.000267763,0.0258833,0.00818777,0.0,0.0,0.0,0.0,0.0,0.0,-1.3534,0.0,0.0,0.0,0.0,0.0,0,1,1,1,1,0,0,0,0,0,0,0
202944384,0,0.0,0.0,0,1.74262,-0.177526,1.24165,0.0,0.0,0.0,0.0045376,0.0241109,0.0136585,0.0,0.0,0.0,0.0,0.0,0.0,-1.35236,0.0,0.0,0.0,0.0,0.0,0,1,1,1,1,0,0,0,0,0,0,0
202949378,0,0.0,0.0,0,1.74264,-0.177409,1.2417,0.0,0.0,0.0,0.00294919,0.0232698,0.00953735,0.0,0.0,0.0,0.0,0.0,0.0,-1.35174,0.0,0.0,0.0,0.0,0.0,0,1,1,1,1,0,0,0,0,0,0,0
202954635,0,0.0,0.0,0,1.74265,-0.177293,1.24172,0.0,0.0,0.0,0.00300604,0.0232349,0.00406631,0.0,0.0,0.0,0.0,0.0,0.0,-1.35112,0.0,0.0,0.0,0.0,0.0,0,1,1,1,1,0,0,0,0,0,0,0
202959387,0,0.0,0.0,0,1.74268,-0.177171,1.24171,0.0,0.0,0.0,0.00461406,0.0243943,-0.00164341,0.0,0.0,0.0,0.0,0.0,0.0,-1.3505,0.0,0.0,0.0,0.0,0.0,0,1,1,1,1,0,0,0,0,0,0,0
202964769,0,0.0,0.0,0,1.74271,-0.177045,1.24168,0.0,0.0,0.0,0.00690753,0.0251173,-0.00644087,0.0,0.0,0.0,0.0,0.0,0.0,-1.34987,0.0,0.0,0.0,0.0,0.0,0,1,1,1,1,0,0,0,0,0,0,0
202969556,0,0.0,0.0,0,1.74273,-0.176918,1.24162,0.0,0.0,0.0,0.00485004,0.0253115,-0.0121013,0.0,0.0,0.0,0.0,0.0,0.0,-1.34926,0.0,0.0,0.0,0.0,0.0,0,1,1,1,1,0,0,0,0,0,0,0
202974355,0,0.0,0.0,0,1.74274,-0.176797,1.24153,0.0,0.0,0.0,0.00184103,0.0242287,-0.0174285,0.0,0.0,0.0,0.0,0.0,0.0,-1.34872,0.0,0.0,0.0,0.0,0.0,0,1,1,1,1,0,0,0,0,0,0,0
202979445,0,0.0,0.0,0,1.74275,-0.176678,1.24142,0.0,0.0,0.0,0.00175043,0.0236768,-0.0229144,0.0,0.0,0.0,0.0,0.0,0.0,-1.34825,0.0,0.0,0.0,0.0,0.0,0,1,1,1,1,0,0,0,0,0,0,0
202984370,0,0.0,0.0,0,1.74277,-0.17656,1.24128,0.0,0.0,0.0,0.00265643,0.0236193,-0.0263917,0.0,0.0,0.0,0.0,0.0,0.0,-1.34779,0.0,0.0,0.0,0.0,0.0,0,1,1,1,1,0,0,0,0,0,0,0
202990199,0,0.0,0.0,0,1.74277,-0.176442,1.24114,0.0,0.0,0.0,0.00160244,0.0236345,-0.0291482,0.0,0.0,0.0,0.0,0.0,0.0,-1.34734,0.0,0.0,0.0,0.0,0.0,0,1,1,1,1,0,0,0,0,0,0,0
202994714,0,0.0,0.0,0,1.74277,-0.176321,1.24099,0.0,0.0,0.0,-0.00125926,0.0240557,-0.0301682,0.0,0.0,0.0,0.0,0.0,0.0,-1.34693,0.0,0.0,0.0,0.0,0.0,0,1,1,1,1,0,0,0,0,0,0,0
202999504,0,0.0,0.0,0,1.74276,-0.176198,1.24083,0.0,0.0,0.0,-0.00236437,0.0245858,-0.0317398,0.0,0.0,0.0,0.0,0.0,0.0,-1.34656,0.0,0.0,0.0,0.0,0.0,0,1,1,1,1,0,0,0,0,0,0,0
203004566,0,0.0,0.0,0,1.74275,-0.176076,1.24065,0.0,0.0,0.0,-0.000577378,0.024363,-0.036098,0.0,0.0,0.0,0.0,0.0,0.0,-1.34618,0.0,0.0,0.0,0.0,0.0,0,1,1,1,1,0,0,0,0,0,0,0
203009631,0,0.0,0.0,0,1.74275,-0.175956,1.24045,0.0,0.0,0.0,-0.00102012,0.0239612,-0.0394383,0.0,0.0,0.0,0.0,0.0,0.0,-1.34575,0.0,0.0,0.0,0.0,0.0,0,1,1,1,1,0,0,0,0,0,0,0
203014550,0,0.0,0.0,0,1.74273,-0.175834,1.24024,0.0,0.0,0.0,-0.00375025,0.0242909,-0.0408621,0.0,0.0,0.0,0.0,0.0,0.0,-1.3453,0.0,0.0,0.0,0.0,0.0,0,1,1,1,1,0,0,0,0,0,0,0
203019528,0,0.0,0.0,0,1.74271,-0.175706,1.24003,0.0,0.0,0.0,-0.00392973,0.025699,-0.0420176,0.0,0.0,0.0,0.0,0.0,0.0,-1.34486,0.0,0.0,0.0,0.0,0.0,0,1,1,1,1,0,0,0,0,0,0,0
203024861,0,0.0,0.0,0,1.7427,-0.175573,1.23981,0.0,0.0,0.0,-0.00180212,0.0263972,-0.0450273,0.0,0.0,0.0,0.0,0.0,0.0,-1.34441,0.0,0.0,0.0,0.0,0.0,0,1,1,1,1,0,0,0,0,0,0,0
203029608,0,0.0,0.0,0,1.74269,-0.175444,1.23957,0.0,0.0,0.0,-0.0026133,0.025941,-0.0477945,0.0,0.0,0.0,0.0,0.0,0.0,-1.34393,0.0,0.0,0.0,0.0,0.0,0,1,1,1,1,0,0,0,0,0,0,0
203034663,0,0.0,0.0,0,1.74369,-0.175015,1.24011,0.0,0.0,0.0,-0.00605973,0.0192324,-0.0371326,0.0,0.0,0.0,0.0,0.0,0.0,-1.34355,0.0,0.0,0.0,0.0,0.0,0,1,1,1,1,0,0,0,0,0,0,0
203039661,0,0.0,0.0,0,1.74366,-0.174912,1.23992,0.0,0.0,0.0,-0.0075707,0.0206924,-0.0394407,0.0,0.0,0.0,0.0,0.0,0.0,-1.34311,0.0,0.0,0.0,0.0,0.0,0,1,1,1,1,0,0,0,0,0,0,0
203044658,0,0.0,0.0,0,1.74362,-0.174804,1.23971,0.0,0.0,0.0,-0.00694682,0.0214326,-0.042025,0.0,0.0,0.0,0.0,0.0,0.0,-1.34265,0.0,0.0,0.0,0.0,0.0,0,1,1,1,1,0,0,0,0,0,0,0
203049516,0,0.0,0.0,0,1.74359,-0.174699,1.23948,0.0,0.0,0.0,-0.00624153,0.0210152,-0.0461186,0.0,0.0,0.0,0.0,0.0,0.0,-1.34216,0.0,0.0,0.0,0.0,0.0,0,1,1,1,1,0,0,0,0,0,0,0
203054494,0,0.0,0.0,0,1.74356,-0.174599,1.23923,0.0,0.0,0.0,-0.00680261,0.0199663,-0.0497636,0.0,0.0,0.0,0.0,0.0,0.0,-1.34165,0.0,0.0,0.0,0.0,0.0,0,1,1,1,1,0,0,0,0,0,0,0
203059835,0,0.0,0.0,0,1.74351,-0.174497,1.23895,0.0,0.0,0.0,-0.0098124,0.020434,-0.0543388,0.0,0.0,0.0,0.0,0.0,0.0,-1.34118,0.0,0.0,0.0,0.0,0.0,0,1,1,1,1,0,0,0,0,0,0,0
203064742,0,0.0,0.0,0,1.74346,-0.174387,1.23866,0.0,0.0,0.0,-0.0098117,0.0219625,-0.0588257,0.0,0.0,0.0,0.0,0.0,0.0,-1.34074,0.0,0.0,0.0,0.0,0.0,0,1,1,1,1,0,0,0,0,0,0,0
203069557,0,0.0,0.0,0,1.74342,-0.174272,1.23833,0.0,0.0,0.0,-0.00693262,0.02285,-0.065276,0.0,0.0,0.0,0.0,0.0,0.0,-1.34023,0.0,0.0,0.0,0.0,0.0,0,1,1,1,1,0,0,0,0,0,0,0
203074602,0,0.0,0.0,0,1.74339,-0.174162,1.23799,0.0,0.0,0.0,-0.00756089,0.0220823,-0.069468,0.0,0.0,0.0,0.0,0.0,0.0,-1.33963,0.0,0.0,0.0,0.0,0.0,0,1,1,1,1,0,0,0,0,0,0,0
203079634,0,0.0,0.0,0,1.74334,-0.174052,1.23764,0.0,0.0,0.0,-0.00949477,0.0220265,-0.0687964,0.0,0.0,0.0,0.0,0.0,0.0,-1.33905,0.0,0.0,0.0,0.0,0.0,0,1,1,1,1,0,0,0,0,0,0,0
203084616,0,0.0,0.0,0,1.74329,-0.173933,1.23729,0.0,0.0,0.0,-0.00992527,0.0237264,-0.0700414,0.0,0.0,0.0,0.0,0.0,0.0,-1.3385,0.0,0.0,0.0,0.0,0.0,0,1,1,1,1,0,0,0,0,0,0,0
203089650,0,0.0,0.0,0,1.74326,-0.17381,1.23693,0.0,0.0,0.0,-0.00673212,0.0245622,-0.0715534,0.0,0.0,0.0,0.0,0.0,0.0,-1.33797,0.0,0.0,0.0,0.0,0.0,0,1,1,1,1,0,0,0,0,0,0,0
203094710,0,0.0,0.0,0,1.74324,-0.173687,1.23656,0.0,0.0,0.0,-0.00360283,0.024554,-0.0740814,0.0,0.0,0.0,0.0,0.0,0.0,-1.3374,0.0,0.0,0.0,0.0,0.0,0,1,1,1,1,0,0,0,0,0,0,0
203099652,0,0.0,0.0,0,1.74321,-0.17357,1.2362,0.0,0.0,0.0,-0.00541407,0.0232949,-0.0728949,0.0,0.0,0.0,0.0,0.0,0.0,-1.33682,0.0,0.0,0.0,0.0,0.0,0,1,1,1,1,0,0,0,0,0,0,0
203104840,0,0.0,0.0,0,1.74316,-0.173453,1.23584,0.0,0.0,0.0,-0.00928338,0.0233042,-0.0701074,0.0,0.0,0.0,0.0,0.0,0.0,-1.3363,0.0,0.0,0.0,0.0,0.0,0,1,1,1,1,0,0,0,0,0,0,0
203109656,0,0.0,0.0,0,1.74312,-0.173329,1.23549,0.0,0.0,0.0,-0.00930098,0.0248066,-0.0716445,0.0,0.0,0.0,0.0,0.0,0.0,-1.33585,0.0,0.0,0.0,0.0,0.0,0,1,1,1,1,0,0,0,0,0,0,0
203114653,0,0.0,0.0,0,1.74309,-0.173199,1.23511,0.0,0.0,0.0,-0.00592179,0.025922,-0.0759075,0.0,0.0,0.0,0.0,0.0,0.0,-1.33538,0.0,0.0,0.0,0.0,0.0,0,1,1,1,1,0,0,0,0,0,0,0
203120250,0,0.0,0.0,0,1.74306,-0.173076,1.2347,0.0,0.0,0.0,-0.00586588,0.0246258,-0.0810903,0.0,0.0,0.0,0.0,0.0,0.0,-1.33486,0.0,0.0,0.0,0.0,0.0,0,1,1,1,1,0,0,0,0,0,0,0
203125284,0,0.0,0.0,0,1.74302,-0.172952,1.23428,0.0,0.0,0.0,-0.00775559,0.0247778,-0.0831605,0.0,0.0,0.0,0.0,0.0,0.0,-1.33434,0.0,0.0,0.0,0.0,0.0,0,1,1,1,1,0,0,0,0,0,0,0
203129873,0,0.0,0.0,0,1.74297,-0.172819,1.23386,0.0,0.0,0.0,-0.00981798,0.0264665,-0.0848938,0.0,0.0,0.0,0.0,0.0,0.0,-1.33384,0.0,0.0,0.0,0.0,0.0,0,1,1,1,1,0,0,0,0,0,0,0
203134843,0,0.0,0.0,0,1.74418,-0.172611,1.23498,0.0,0.0,0.0,-0.00664635,0.0248069,-0.0813247,0.0,0.0,0.0,0.0,0.0,0.0,-1.33353,0.0,0.0,0.0,0.0,0.0,0,1,1,1,1,0,0,0,0,0,0,0
203139638,0,0.0,0.0,0,1.74415,-0.172489,1.23454,0.0,0.0,0.0,-0.00435737,0.024426,-0.0887738,0.0,0.0,0.0,0.0,0.0,0.0,-1.33291,0.0,0.0,0.0,0.0,0.0,0,1,1,1,1,0,0,0,0,0,0,0
203144679,0,0.0,0.0,0,1.74414,-0.172367,1.23407,0.0,0.0,0.0,-0.00319403,0.0243423,-0.0931847,0.0,0.0,0.0,0.0,0.0,0.0,-1.33224,0.0,0.0,0.0,0.0,0.0,0,1,1,1,1,0,0,0,0,0,0,0
203149743,0,0.0,0.0,0,1.74411,-0.172241,1.23361,0.0,0.0,0.0,-0.00521099,0.0252123,-0.0922518,0.0,0.0,0.0,0.0,0.0,0.0,-1.33162,0.0,0.0,0.0,0.0,0.0,0,1,1,1,1,0,0,0,0,0,0,0
203154851,0,0.0,0.0,0,1.74408,-0.172104,1.23315,0.0,0.0,0.0,-0.00558827,0.0272796,-0.0925237,0.0,0.0,0.0,0.0,0.0,0.0,-1.33106,0.0,0.0,0.0,0.0,0.0,0,1,1,1,1,0,0,0,0,0,0,0
203159798,0,0.0,0.0,0,1.74407,-0.171968,1.23265,0.0,0.0,0.0,-0.00261491,0.027114,-0.0982071,0.0,0.0,0.0,0.0,0.0,0.0,-1.33046,0.0,0.0,0.0,0.0,0.0,0,1,1,1,1,0,0,0,0,0,0,0
203164815,0,0.0,0.0,0,1.74406,-0.171838,1.23213,0.0,0.0,0.0,-0.00135091,0.0260872,-0.105764,0.0,0.0,0.0,0.0,0.0,0.0,-1.32982,0.0,0.0,0.0,0.0,0.0,0,1,1,1,1,0,0,0,0,0,0,0
203169712,0,0.0,0.0,0,1.74405,-0.171709,1.23159,0.0,0.0,0.0,-0.00248007,0.025783,-0.106331,0.0,0.0,0.0,0.0,0.0,0.0,-1.32918,0.0,0.0,0.0,0.0,0.0,0,1,1,1,1,0,0,0,0,0,0,0
203175407,0,0.0,0.0,0,1.74403,-0.171572,1.23107,0.0,0.0,0.0,-0.00393756,0.0273624,-0.103955,0.0,0.0,0.0,0.0,0.0,0.0,-1.32852,0.0,0.0,0.0,0.0,0.0,0,1,1,1,1,0,0,0,0,0,0,0
203179718,0,0.0,0.0,0,1.74401,-0.171431,1.23054,0.0,0.0,0.0,-0.00424225,0.0280734,-0.106691,0.0,0.0,0.0,0.0,0.0,0.0,-1.32789,0.0,0.0,0.0,0.0,0.0,0,1,1,1,1,0,0,0,0,0,0,0
203185445,0,0.0,0.0,0,1.74399,-0.171297,1.22997,0.0,0.0,0.0,-0.00351954,0.026714,-0.113185,0.0,0.0,0.0,0.0,0.0,0.0,-1.32723,0.0,0.0,0.0,0.0,0.0,0,1,1,1,1,0,0,0,0,0,0,0
203189866,0,0.0,0.0,0,1.74397,-0.171169,1.22938,0.0,0.0,0.0,-0.00376793,0.0256193,-0.117245,0.0,0.0,0.0,0.0,0.0,0.0,-1.32656,0.0,0.0,0.0,0.0,0.0,0,1,1,1,1,0,0,0,0,0,0,0
203195344,0,0.0,0.0,0,1.74394,-0.171039,1.22881,0.0,0.0,0.0,-0.00594729,0.0259863,-0.115089,0.0,0.0,0.0,0.0,0.0,0.0,-1.32597,0.0,0.0,0.0,0.0,0.0,0,1,1,1,1,0,0,0,0,0,0,0
203199748,0,0.0,0.0,0,1.74391,-0.170901,1.22825,0.0,0.0,0.0,-0.00642836,0.0274788,-0.111234,0.0,0.0,0.0,0.0,0.0,0.0,-1.32537,0.0,0.0,0.0,0.0,0.0,0,1,1,1,1,0,0,0,0,0,0,0
203204727,0,0.0,0.0,0,1.74389,-0.170763,1.22767,0.0,0.0,0.0,-0.00430914,0.027538,-0.115366,0.0,0.0,0.0,0.0,0.0,0.0,-1.32471,0.0,0.0,0.0,0.0,0.0,0,1,1,1,1,0,0,0,0,0,0,0
203209765,0,0.0,0.0,0,1.74388,-0.170628,1.22705,0.0,0.0,0.0,-0.00293452,0.0270513,-0.123297,0.0,0.0,0.0,0.0,0.0,0.0,-1.32401,0.0,0.0,0.0,0.0,0.0,0,1,1,1,1,0,0,0,0,0,0,0
203214743,0,0.0,0.0,0,1.74386,-0.170494,1.22641,0.0,0.0,0.0,-0.0025032,0.0267417,-0.128093,0.0,0.0,0.0,0.0,0.0,0.0,-1.32332,0.0,0.0,0.0,0.0,0.0,0,1,1,1,1,0,0,0,0,0,0,0
203220029,0,0.0,0.0,0,1.74384,-0.170352,1.22578,0.0,0.0,0.0,-0.00413378,0.028304,-0.12659,0.0,0.0,0.0,0.0,0.0,0.0,-1.32264,0.0,0.0,0.0,0.0,0.0,0,1,1,1,1,0,0,0,0,0,0,0
203224962,0,0.0,0.0,0,1.74382,-0.170208,1.22514,0.0,0.0,0.0,-0.00419062,0.0288111,-0.127658,0.0,0.0,0.0,0.0,0.0,0.0,-1.32197,0.0,0.0,0.0,0.0,0.0,0,1,1,1,1,0,0,0,0,0,0,0
203229813,0,0.0,0.0,0,1.74379,-0.170069,1.22447,0.0,0.0,0.0,-0.00535391,0.0277291,-0.134349,0.0,0.0,0.0,0.0,0.0,0.0,-1.32136,0.0,0.0,0.0,0.0,0.0,0,1,1,1,1,0,0,0,0,0,0,0
203234791,0,0.0,0.0,0,1.74377,-0.169931,1.22376,0.0,0.0,0.0,-0.00413281,0.0275798,-0.140672,0.0,0.0,0.0,0.0,0.0,0.0,-1.32079,0.0,0.0,0.0,0.0,0.0,0,1,1,1,1,0,0,0,0,0,0,0
203239852,0,0.0,0.0,0,1.74376,-0.169785,1.22305,0.0,0.0,0.0,-0.00313343,0.0292281,-0.142786,0.0,0.0,0.0,0.0,0.0,0.0,-1.32021,0.0,0.0,0.0,0.0,0.0,0,1,1,1,1,0,0,0,0,0,0,0
203244883,0,0.0,0.0,0,1.74374,-0.169635,1.22234,0.0,0.0,0.0,-0.00419435,0.0299659,-0.140642,0.0,0.0,0.0,0.0,0.0,0.0,-1.31962,0.0,0.0,0.0,0.0,0.0,0,1,1,1,1,0,0,0,0,0,0,0
203250476,0,0.0,0.0,0,1.74944,-0.171339,1.22909,0.0,0.0,0.0,-0.0111053,0.0202668,-0.126479,0.0,0.0,0.0,0.0,0.0,0.0,-1.31963,0.0,0.0,0.0,0.0,0.0,0,1,1,1,1,0,0,0,0,0,0,0
203259919,0,0.0,0.0,0,1.74933,-0.171143,1.22777,0.0,0.0,0.0,-0.00983884,0.0199085,-0.132095,0.0,0.0,0.0,0.0,0.0,0.0,-1.31856,0.0,0.0,0.0,0.0,0.0,0,1,1,1,1,0,0,0,0,0,0,0
203264951,0,0.0,0.0,0,1.74929,-0.171036,1.22712,0.0,0.0,0.0,-0.00829355,0.0213349,-0.130148,0.0,0.0,0.0,0.0,0.0,0.0,-1.31796,0.0,0.0,0.0,0.0,0.0,0,1,1,1,1,0,0,0,0,0,0,0
203269920,0,0.0,0.0,0,1.74924,-0.170929,1.22648,0.0,0.0,0.0,-0.0102824,0.0213747,-0.127595,0.0,0.0,0.0,0.0,0.0,0.0,-1.31732,0.0,0.0,0.0,0.0,0.0,0,1,1,1,1,0,0,0,0,0,0,0
203274916,0,0.0,0.0,0,1.74917,-0.170827,1.22582,0.0,0.0,0.0,-0.0134449,0.0203565,-0.132378,0.0,0.0,0.0,0.0,0.0,0.0,-1.31671,0.0,0.0,0.0,0.0,0.0,0,1,1,1,1,0,0,0,0,0,0,0
203279883,0,0.0,0.0,0,1.7491,-0.170727,1.22511,0.0,0.0,0.0,-0.0132167,0.0199969,-0.14022,0.0,0.0,0.0,0.0,0.0,0.0,-1.31615,0.0,0.0,0.0,0.0,0.0,0,1,1,1,1,0,0,0,0,0,0,0
203284861,0,0.0,0.0,0,1.74905,-0.170622,1.22441,0.0,0.0,0.0,-0.0114445,0.0210044,-0.141532,0.0,0.0,0.0,0.0,0.0,0.0,-1.31563,0.0,0.0,0.0,0.0,0.0,0,1,1,1,1,0,0,0,0,0,0,0
203290121,0,0.0,0.0,0,1.74899,-0.170513,1.2237,0.0,0.0,0.0,-0.0113659,0.0216778,-0.140696,0.0,0.0,0.0,0.0,0.0,0.0,-1.31509,0.0,0.0,0.0,0.0,0.0,0,1,1,1,1,0,0,0,0,0,0,0
203294968,0,0.0,0.0,0,1.74892,-0.170409,1.22299,0.0,0.0,0.0,-0.014277,0.0208569,-0.141285,0.0,0.0,0.0,0.0,0.0,0.0,-1.31452,0.0,0.0,0.0,0.0,0.0,0,1,1,1,1,0,0,0,0,0,0,0
203299897,0,0.0,0.0,0,1.74884,-0.170307,1.22227,0.0,0.0,0.0,-0.0147781,0.0203731,-0.145177,0.0,0.0,0.0,0.0,0.0,0.0,-1.31398,0.0,0.0,0.0,0.0,0.0,0,1,1,1,1,0,0,0,0,0,0,0
203304876,0,0.0,0.0,0,1.74879,-0.170198,1.22151,0.0,0.0,0.0,-0.0115572,0.0215912,-0.150372,0.0,0.0,0.0,0.0,0.0,0.0,-1.31346,0.0,0.0,0.0,0.0,0.0,0,1,1,1,1,0,0,0,0,0,0,0
203309888,0,0.0,0.0,0,1.74874,-0.170088,1.22076,0.0,0.0,0.0,-0.0101908,0.0221464,-0.150853,0.0,0.0,0.0,0.0,0.0,0.0,-1.31292,0.0,0.0,0.0,0.0,0.0,0,1,1,1,1,0,0,0,0,0,0,0
203314903,0,0.0,0.0,0,1.74867,-0.169983,1.22001,0.0,0.0,0.0,-0.0137057,0.0208424,-0.14911,0.0,0.0,0.0,0.0,0.0,0.0,-1.31238,0.0,0.0,0.0,0.0,0.0,0,1,1,1,1,0,0,0,0,0,0,0
203320619,0,0.0,0.0,0,1.74858,-0.16988,1.21926,0.0,0.0,0.0,-0.0169702,0.020586,-0.148995,0.0,0.0,0.0,0.0,0.0,0.0,-1.31189,0.0,0.0,0.0,0.0,0.0,0,1,1,1,1,0,0,0,0,0,0,0
203325271,0,0.0,0.0,0,1.74851,-0.169773,1.2185,0.0,0.0,0.0,-0.014728,0.0214356,-0.152494,0.0,0.0,0.0,0.0,0.0,0.0,-1.31143,0.0,0.0,0.0,0.0,0.0,0,1,1,1,1,0,0,0,0,0,0,0
203329987,0,0.0,0.0,0,1.74845,-0.169661,1.21772,0.0,0.0,0.0,-0.0111893,0.0223037,-0.155608,0.0,0.0,0.0,0.0,0.0,0.0,-1.31093,0.0,0.0,0.0,0.0,0.0,0,1,1,1,1,0,0,0,0,0,0,0
203335167,0,0.0,0.0,0,1.74819,-0.170363,1.21646,0.0,0.0,0.0,-0.0153048,0.0146516,-0.148297,0.0,0.0,0.0,0.0,0.0,0.0,-1.31049,0.0,0.0,0.0,0.0,0.0,0,1,1,1,1,0,0,0,0,0,0,0
203340032,0,0.0,0.0,0,1.74809,-0.17029,1.21572,0.0,0.0,0.0,-0.0201924,0.0144851,-0.147,0.0,0.0,0.0,0.0,0.0,0.0,-1.31001,0.0,0.0,0.0,0.0,0.0,0,1,1,1,1,0,0,0,0,0,0,0
203345863,0,0.0,0.0,0,1.74798,-0.170217,1.21498,0.0,0.0,0.0,-0.022177,0.0146296,-0.148335,0.0,0.0,0.0,0.0,0.0,0.0,-1.30954,0.0,0.0,0.0,0.0,0.0,0,1,1,1,1,0,0,0,0,0,0,0
203350208,0,0.0,0.0,0,1.74787,-0.170141,1.21421,0.0,0.0,0.0,-0.0208868,0.0152796,-0.15279,0.0,0.0,0.0,0.0,0.0,0.0,-1.30905,0.0,0.0,0.0,0.0,0.0,0,1,1,1,1,0,0,0,0,0,0,0
203355099,0,0.0,0.0,0,1.74776,-0.170064,1.21344,0.0,0.0,0.0,-0.0217313,0.0153845,-0.154075,0.0,0.0,0.0,0.0,0.0,0.0,-1.30852,0.0,0.0,0.0,0.0,0.0,0,1,1,1,1,0,0,0,0,0,0,0
203360000,0,0.0,0.0,0,1.74764,-0.169987,1.21268,0.0,0.0,0.0,-0.0248913,0.0153183,-0.152384,0.0,0.0,0.0,0.0,0.0,0.0,-1.30797,0.0,0.0,0.0,0.0,0.0,0,1,1,1,1,0,0,0,0,0,0,0
203365532,0,0.0,0.0,0,1.7475,-0.169906,1.21192,0.0,0.0,0.0,-0.027798,0.0162092,-0.152405,0.0,0.0,0.0,0.0,0.0,0.0,-1.30745,0.0,0.0,0.0,0.0,0.0,0,1,1,1,1,0,0,0,0,0,0,0
203370534,0,0.0,0.0,0,1.74737,-0.169819,1.21114,0.0,0.0,0.0,-0.0262342,0.0172262,-0.155632,0.0,0.0,0.0,0.0,0.0,0.0,-1.30693,0.0,0.0,0.0,0.0,0.0,0,1,1,1,1,0,0,0,0,0,0,0
203375097,0,0.0,0.0,0,1.74726,-0.169729,1.21033,0.0,0.0,0.0,-0.0226248,0.0179992,-0.160766,0.0,0.0,0.0,0.0,0.0,0.0,-1.30633,0.0,0.0,0.0,0.0,0.0,0,1,1,1,1,0,0,0,0,0,0,0
203380593,0,0.0,0.0,0,1.74714,-0.169638,1.20952,0.0,0.0,0.0,-0.0236724,0.0182913,-0.161848,0.0,0.0,0.0,0.0,0.0,0.0,-1.30569,0.0,0.0,0.0,0.0,0.0,0,1,1,1,1,0,0,0,0,0,0,0
203385031,0,0.0,0.0,0,1.747,-0.169541,1.20873,0.0,0.0,0.0,-0.0273358,0.0194214,-0.157546,0.0,0.0,0.0,0.0,0.0,0.0,-1.30508,0.0,0.0,0.0,0.0,0.0,0,1,1,1,1,0,0,0,0,0,0,0
203390061,0,0.0,0.0,0,1.74686,-0.169437,1.20795,0.0,0.0,0.0,-0.0275696,0.0206,-0.15666,0.0,0.0,0.0,0.0,0.0,0.0,-1.30451,0.0,0.0,0.0,0.0,0.0,0,1,1,1,1,0,0,0,0,0,0,0
203395383,0,0.0,0.0,0,1.74674,-0.169334,1.20716,0.0,0.0,0.0,-0.0253227,0.020649,-0.157668,0.0,0.0,0.0,0.0,0.0,0.0,-1.30397,0.0,0.0,0.0,0.0,0.0,0,1,1,1,1,0,0,0,0,0,0,0
203400143,0,0.0,0.0,0,1.74662,-0.169229,1.20636,0.0,0.0,0.0,-0.0235476,0.0209358,-0.15932,0.0,0.0,0.0,0.0,0.0,0.0,-1.30343,0.0,0.0,0.0,0.0,0.0,0,1,1,1,1,0,0,0,0,0,0,0
203405155,0,0.0,0.0,0,1.7465,-0.169119,1.20559,0.0,0.0,0.0,-0.0243104,0.0219892,-0.154085,0.0,0.0,0.0,0.0,0.0,0.0,-1.30284,0.0,0.0,0.0,0.0,0.0,0,1,1,1,1,0,0,0,0,0,0,0
203410273,0,0.0,0.0,0,1.74637,-0.168999,1.20484,0.0,0.0,0.0,-0.0250131,0.0239776,-0.149819,0.0,0.0,0.0,0.0,0.0,0.0,-1.30226,0.0,0.0,0.0,0.0,0.0,0,1,1,1,1,0,0,0,0,0,0,0
203415211,0,0.0,0.0,0,1.74625,-0.168879,1.20408,0.0,0.0,0.0,-0.0238099,0.0238488,-0.151999,0.0,0.0,0.0,0.0,0.0,0.0,-1.30172,0.0,0.0,0.0,0.0,0.0,0,1,1,1,1,0,0,0,0,0,0,0
203420208,0,0.0,0.0,0,1.74615,-0.168762,1.2033,0.0,0.0,0.0,-0.0206786,0.0233691,-0.155736,0.0,0.0,0.0,0.0,0.0,0.0,-1.30112,0.0,0.0,0.0,0.0,0.0,0,1,1,1,1,0,0,0,0,0,0,0
203425413,0,0.0,0.0,0,1.74605,-0.168642,1.20251,0.0,0.0,0.0,-0.0205083,0.0239931,-0.156613,0.0,0.0,0.0,0.0,0.0,0.0,-1.30048,0.0,0.0,0.0,0.0,0.0,0,1,1,1,1,0,0,0,0,0,0,0
203430162,0,0.0,0.0,0,1.74593,-0.168513,1.20174,0.0,0.0,0.0,-0.0224524,0.0258027,-0.153893,0.0,0.0,0.0,0.0,0.0,0.0,-1.29982,0.0,0.0,0.0,0.0,0.0,0,1,1,1,1,0,0,0,0,0,0,0
203435219,0,0.0,0.0,0,1.74583,-0.168378,1.20096,0.0,0.0,0.0,-0.0208651,0.0269115,-0.155465,0.0,0.0,0.0,0.0,0.0,0.0,-1.29912,0.0,0.0,0.0,0.0,0.0,0,1,1,1,1,0,0,0,0,0,0,0
203440231,0,0.0,0.0,0,1.74606,-0.168656,1.20179,0.0,0.0,0.0,-0.0194431,0.0195221,-0.150461,0.0,0.0,0.0,0.0,0.0,0.0,-1.29859,0.0,0.0,0.0,0.0,0.0,0,1,1,1,1,0,0,0,0,0,0,0
203445660,0,0.0,0.0,0,1.74596,-0.168562,1.20103,0.0,0.0,0.0,-0.019046,0.0188058,-0.150651,0.0,0.0,0.0,0.0,0.0,0.0,-1.29782,0.0,0.0,0.0,0.0,0.0,0,1,1,1,1,0,0,0,0,0,0,0
